aX,aY,aZ,gX,gY,gZ
0.366,-0.956,-1.413,8.118,14.038,-18.86
0.353,-0.964,-1.475,28.625,6.47,-20.264
0.375,-0.938,-1.501,57.678,-3.54,-17.334
0.349,-0.951,-1.458,82.52,-13.245,-13.062
0.361,-0.934,-1.417,107.788,-20.203,-8.606
0.416,-0.926,-1.385,141.724,-22.034,-6.287
0.477,-0.915,-1.392,178.284,-14.221,-15.869
0.407,-0.914,-1.554,221.252,-1.038,-33.264
0.408,-0.899,-1.594,254.028,18.555,-44.373
0.384,-0.859,-1.676,281.372,40.71,-48.34
0.336,-0.834,-1.709,300.842,54.016,-50.659
0.292,-0.761,-1.755,321.96,56.519,-50.049
0.272,-0.692,-1.823,342.224,42.786,-46.814
0.229,-0.633,-1.839,352.417,22.278,-42.786
0.191,-0.59,-1.793,362.793,0.854,-38.696
0.21,-0.516,-1.697,371.826,-20.813,-36.011
0.24,-0.432,-1.574,374.573,-39.734,-35.095
0.249,-0.4,-1.511,383.24,-49.5,-34.058
0.24,-0.388,-1.447,396.729,-50.903,-31.799
0.243,-0.329,-1.381,413.94,-49.866,-27.344
0.218,-0.213,-1.301,427.856,-48.706,-24.78
0.188,-0.094,-1.186,429.932,-46.143,-25.513
0.159,-0.006,-1.055,419.495,-45.654,-29.175
0.141,0.017,-0.906,405.029,-46.692,-35.461
0.116,0.003,-0.787,390.381,-47.424,-41.87
0.086,-0.012,-0.688,376.099,-48.157,-44.128
0.052,-0.01,-0.586,364.563,-51.025,-44.373
0.033,-0.008,-0.463,354.797,-56.763,-45.41
0.02,0,-0.345,344.849,-64.758,-46.631
0.027,0.013,-0.232,329.834,-71.533,-47.729
0.061,-0.017,-0.075,308.96,-78.064,-49.622
0.085,-0.045,0.09,290.344,-86.304,-52.551
0.131,-0.071,0.185,280.945,-96.375,-54.077
0.153,-0.017,0.245,268.86,-108.093,-54.199
0.19,0.036,0.324,249.329,-122.131,-45.471
0.217,0.07,0.436,227.661,-137.146,-32.104
0.23,0.1,0.554,208.618,-148.804,-19.775
0.254,0.144,0.672,191.833,-151.428,-11.536
0.282,0.208,0.777,176.392,-142.639,-8.911
0.304,0.258,0.908,166.687,-125.732,-9.399
0.334,0.318,0.932,146.545,-105.042,-9.766
0.349,0.379,0.949,122.681,-83.679,-9.583
0.368,0.442,0.983,100.098,-68.359,-7.385
0.384,0.516,1.032,72.693,-58.716,-3.479
0.381,0.593,1.124,47.668,-54.565,0.671
0.369,0.631,1.176,40.649,-53.284,4.517
0.368,0.696,1.266,36.377,-53.345,6.409
0.357,0.785,1.264,6.897,-47.852,7.507
0.34,0.847,1.193,-9.766,-40.344,6.653
0.339,0.856,1.26,-6.897,-34.119,5.92
0.343,0.864,1.204,-35.156,-26.367,6.897
0.316,0.844,1.1,-69.092,-14.832,8.728
0.312,0.803,0.99,-89.844,-4.089,13.123
0.31,0.79,0.895,-105.713,1.709,18.433
0.297,0.781,0.814,-121.216,6.714,20.63
0.28,0.772,0.724,-137.268,12.939,21.301
0.261,0.763,0.638,-154.175,19.165,21.301
0.232,0.742,0.572,-173.218,23.926,20.02
0.189,0.715,0.521,-192.139,26.367,18.311
0.235,0.695,0.45,-208.618,27.588,17.822
0.173,0.692,0.417,-232.91,28.32,19.836
0.181,0.714,0.409,-252.686,9.521,25.391
0.153,0.693,0.397,-237.549,5.554,18.494
0.137,0.666,0.381,-213.867,25.208,9.399
0.162,0.591,0.326,-215.454,37.598,5.981
0.181,0.522,0.259,-219.055,44.312,5.127
0.19,0.48,0.196,-219.849,49.377,4.456
0.188,0.461,0.134,-221.252,57.19,4.089
0.186,0.422,0.086,-225.952,66.833,1.709
0.183,0.389,0.031,-232.544,75.928,-1.465
0.182,0.365,-0.054,-239.441,83.557,-3.113
0.182,0.337,-0.128,-252.625,89.905,-4.272
0.156,0.291,-0.193,-269.226,95.642,-5.798
0.131,0.223,-0.248,-284.851,96.924,-7.263
0.126,0.152,-0.268,-292.053,93.628,-7.019
0.129,0.092,-0.304,-288.574,87.891,-3.235
0.144,0.017,-0.369,-282.593,84.045,1.831
0.201,-0.06,-0.442,-280.212,85.693,7.385
0.232,-0.137,-0.536,-281.982,92.529,12.634
0.235,-0.214,-0.652,-288.513,103.76,16.113
0.213,-0.282,-0.764,-300.049,116.943,17.273
0.193,-0.354,-0.865,-312.378,127.869,18.982
0.147,-0.421,-0.936,-322.266,134.46,22.156
0.084,-0.46,-1.015,-327.515,135.376,25.879
0.031,-0.446,-1.064,-325.073,127.808,29.114
-0.024,-0.411,-1.105,-315.674,110.596,30.151
-0.054,-0.412,-1.124,-302.002,85.388,29.907
0.097,-0.455,-1.107,-284.607,55.908,28.87
-0.03,-0.633,-1.105,-257.141,32.593,20.386
0.012,-0.525,-1.041,-253.235,20.508,20.874
0.185,-0.59,-1.123,-226.013,17.883,22.217
0.202,-0.661,-1.141,-178.711,34.363,10.132
0.21,-0.707,-1.273,-163.452,52.49,-0.061
0.17,-0.781,-1.389,-164.856,74.036,-1.953
0.135,-0.798,-1.509,-181.274,88.867,2.441
0.071,-0.817,-1.616,-201.233,93.445,11.414
0.005,-0.819,-1.72,-215.576,88.806,19.531
-0.055,-0.831,-1.843,-213.44,77.026,27.771
-0.089,-0.823,-1.899,-200.012,54.504,37.415
-0.085,-0.822,-1.911,-186.768,23.437,49.072
-0.076,-0.823,-1.913,-152.405,-8.667,59.57
-0.03,-0.711,-1.541,-104.553,-33.691,58.411
-0.065,-0.811,-2.023,-33.508,-39.368,36.56
-0.052,-0.687,-1.77,-31.616,-60.486,26.428
-0.033,-0.673,-1.652,-33.875,-72.083,18.188
0.016,-0.666,-1.509,-24.902,-72.266,9.644
0.051,-0.666,-1.417,-20.264,-66.101,-0.305
0.079,-0.661,-1.335,-14.343,-56.885,-7.202
0.114,-0.665,-1.27,-8.24,-44.617,-11.414
0.138,-0.661,-1.234,-1.099,-28.992,-14.343
0.139,-0.647,-1.217,7.202,-12.817,-16.418
0.139,-0.623,-1.209,17.761,-2.686,-17.029
0.142,-0.594,-1.199,25.635,-1.526,-17.395
0.141,-0.57,-1.174,28.87,-5.371,-17.883
0.144,-0.553,-1.132,28.381,-14.771,-18.25
0.164,-0.53,-1.104,25.94,-28.137,-18.982
0.145,-0.453,-1.022,20.447,-39.063,-18.188
0.284,-0.428,-0.887,19.897,-48.279,-7.568
-0.116,-0.329,-0.778,11.292,-45.41,-11.963
0.284,-0.474,-1.718,224.487,-3.784,-30.518
0.281,-0.424,-1.734,244.324,-0.61,-33.081
0.265,-0.372,-1.756,261.292,1.77,-35.645
0.25,-0.323,-1.731,277.405,2.441,-39.795
0.235,-0.277,-1.723,299.011,1.587,-46.875
0.209,-0.226,-1.699,319.275,-0.305,-54.81
0.217,-0.167,-1.684,336.853,-5.798,-60.669
0.214,-0.101,-1.6,346.802,-14.648,-64.941
0.222,-0.046,-1.537,346.008,-23.254,-67.688
0.227,-0.013,-1.454,346.802,-29.419,-69.031
0.231,0.016,-1.398,352.356,-33.63,-68.726
0.238,0.08,-1.321,349.67,-37.903,-67.749
0.219,0.115,-1.239,346.497,-38.818,-66.467
0.216,0.157,-1.139,342.529,-40.283,-63.538
0.221,0.184,-1.065,340.515,-39.368,-61.89
0.214,0.198,-1.03,338.562,-35.95,-60.913
0.196,0.192,-0.965,333.984,-32.715,-58.594
0.186,0.184,-0.928,334.717,-31.555,-56.213
0.15,0.202,-0.853,333.862,-32.41,-54.626
0.137,0.21,-0.751,329.529,-34.302,-53.04
0.125,0.202,-0.629,322.205,-37.109,-51.941
0.127,0.198,-0.501,312.256,-43.579,-52.124
0.136,0.182,-0.395,300.049,-52.551,-51.636
0.156,0.168,-0.277,287.292,-61.89,-50.415
0.196,0.178,-0.172,271.973,-70.74,-48.279
0.227,0.169,-0.059,254.822,-79.712,-43.579
0.258,0.161,0.027,240.417,-88.074,-35.217
0.281,0.185,0.055,232.483,-92.896,-25.574
0.305,0.193,0.094,225.525,-90.82,-19.958
0.324,0.172,0.149,216.98,-82.397,-18.433
0.354,0.157,0.238,208.435,-73.181,-18.066
0.366,0.148,0.337,200.806,-66.223,-18.25
0.388,0.165,0.472,190.186,-59.875,-16.357
0.429,0.178,0.604,176.208,-53.467,-14.038
0.464,0.189,0.732,159.912,-50.415,-12.329
0.495,0.225,0.855,140.381,-53.467,-8.423
0.51,0.273,0.967,118.896,-60.242,-2.258
0.521,0.293,1.066,96.741,-65.063,3.906
0.528,0.308,1.142,77.271,-62.988,8.423
0.534,0.325,1.197,59.265,-54.688,10.498
0.532,0.339,1.236,41.382,-43.213,12.207
0.526,0.353,1.255,24.658,-32.288,15.32
0.522,0.375,1.254,8.85,-24.353,19.348
0.518,0.419,1.245,-7.812,-18.677,23.865
0.5,0.48,1.214,-27.405,-13.123,27.71
0.466,0.523,1.175,-49.5,-6.897,33.203
0.433,0.557,1.117,-71.594,-1.709,38.574
0.395,0.585,1.034,-91.431,1.892,42.053
0.36,0.598,0.953,-110.962,4.639,43.823
0.32,0.595,0.876,-129.272,6.409,44.25
0.303,0.579,0.781,-140.32,7.69,46.448
0.233,0.541,0.655,-148.804,9.705,48.828
0.241,0.555,0.607,-155.273,5.432,50.842
0.195,0.547,0.543,-154.968,5.554,46.997
0.176,0.557,0.501,-163.574,11.841,43.091
0.177,0.547,0.483,-170.776,14.282,39.978
0.169,0.557,0.447,-173.584,14.587,34.119
0.172,0.559,0.402,-180.725,18.25,29.358
0.179,0.548,0.344,-190.857,22.4,27.161
0.177,0.53,0.291,-200.134,26.062,27.039
0.17,0.508,0.238,-208.679,31.982,26.917
0.145,0.472,0.194,-216.797,39.978,26.733
0.131,0.44,0.147,-222.595,48.828,26.978
0.12,0.426,0.081,-224.915,57.861,26.001
0.115,0.414,0.01,-228.027,68.726,22.4
0.119,0.389,-0.053,-233.276,81.848,16.052
0.126,0.353,-0.144,-238.525,97.473,10.193
0.127,0.286,-0.244,-245.544,112.793,9.338
0.092,0.2,-0.373,-250.549,124.268,14.343
0.055,0.136,-0.477,-255.493,128.54,24.658
0.037,0.102,-0.634,-254.517,123.779,36.621
0.005,0.112,-0.77,-252.991,112.976,50.11
-0.036,0.156,-0.839,-254.395,97.412,60.669
-0.034,0.142,-0.916,-252.625,82.886,59.387
-0.057,0.135,-0.982,-252.014,74.463,50.415
-0.048,0.114,-1.054,-251.404,65.002,43.152
-0.031,0.085,-1.075,-248.718,56.824,36.011
-0.025,0.053,-1.104,-242.493,51.208,29.175
-0.022,0.025,-1.136,-235.046,48.645,23.437
-0.025,-0.001,-1.173,-226.196,48.34,19.836
-0.001,0,-1.226,-213.196,49.316,19.409
0.014,0.023,-1.256,-202.271,47.852,21.484
0.013,0.026,-1.264,-195.923,45.227,22.522
0.001,0.028,-1.287,-187.988,41.687,23.315
0.002,0.033,-1.311,-181.885,36.499,24.963
0.008,0.04,-1.326,-180.481,31.189,22.461
0.008,0.041,-1.324,-182.556,25.085,17.273
0.022,0.011,-1.338,-183.35,18.005,16.907
0.037,-0.037,-1.401,-181.335,14.465,21.118
0.045,-0.049,-1.467,-181.213,15.076,25.269
0.052,-0.058,-1.53,-181.946,15.808,28.076
0.045,-0.076,-1.582,-179.687,15.991,30.64
0.045,-0.076,-1.623,-175.232,13.672,32.043
0.042,-0.074,-1.631,-171.387,8.484,31.311
0.04,-0.088,-1.611,-167.908,2.258,28.687
0.044,-0.11,-1.583,-163.208,-2.808,26.123
0.053,-0.129,-1.545,-158.386,-7.812,23.682
0.076,-0.183,-1.504,-154.785,-12.939,23.804
0.06,-0.286,-1.42,-145.325,-17.517,24.841
0.122,-0.198,-1.452,-126.526,-23.193,23.01
0.109,-0.281,-1.363,-122.437,-21.057,27.222
0.115,-0.29,-1.342,-104.004,-19.653,24.17
0.127,-0.305,-1.298,-86.243,-18.677,17.578
0.129,-0.319,-1.248,-71.777,-16.663,10.925
0.126,-0.315,-1.252,-59.204,-12.939,5.676
0.133,-0.322,-1.237,-53.772,-8.057,2.991
0.133,-0.352,-1.237,-52.185,-4.578,2.93
0.128,-0.359,-1.239,-49.5,-2.441,3.052
0.128,-0.367,-1.247,-46.692,-1.587,2.319
0.135,-0.377,-1.265,-44.25,-1.526,2.258
0.133,-0.379,-1.249,-43.701,-1.404,3.601
0.137,-0.384,-1.251,-43.335,-4.456,5.798
0.13,-0.369,-1.216,-43.213,-6.287,6.104
0.138,-0.367,-1.183,-41.504,-7.568,5.127
0.132,-0.386,-1.148,-36.56,-7.324,2.441
0.126,-0.394,-1.125,-26.184,-5.554,-0.244
0.127,-0.387,-1.107,-16.052,-2.869,-2.197
0.136,-0.376,-1.08,-8.789,-2.075,-4.639
0.141,-0.371,-1.063,-3.784,-3.296,-6.775
0.135,0.335,-2.102,399.658,5.859,-29.724
0.113,0.378,-1.99,425.049,6.714,-47.546
0.117,0.425,-1.802,436.34,4.028,-64.148
0.113,0.463,-1.623,432.556,-3.906,-74.951
0.087,0.502,-1.454,425.11,-16.113,-78.735
0.1,0.529,-1.337,421.265,-24.475,-83.374
0.11,0.529,-1.318,414.795,-25.208,-90.637
0.095,0.436,-1.271,410.217,-24.109,-94.36
0.084,0.408,-1.23,409.424,-24.292,-96.252
0.053,0.384,-1.155,414.49,-24.353,-99.731
0.018,0.283,-1.015,411.316,-25.757,-105.53
0.031,0.207,-0.854,407.593,-28.809,-111.511
0.017,0.154,-0.762,403.137,-29.358,-113.037
0.009,0.042,-0.632,391.907,-28.748,-112.976
0.022,-0.039,-0.493,381.897,-35.4,-113.586
0.038,-0.078,-0.371,367.554,-50.781,-111.572
0.054,-0.176,-0.245,351.196,-65.247,-110.046
0.102,-0.277,-0.113,335.571,-74.341,-109.985
0.122,-0.389,0.031,319.153,-82.275,-105.957
0.163,-0.51,0.199,306.213,-89.417,-101.257
0.211,-0.637,0.396,294.25,-91.797,-98.022
0.225,-0.791,0.626,280.823,-90.82,-93.445
0.239,-0.952,0.955,262.024,-90.698,-87.952
0.229,-1.094,1.364,233.215,-94.849,-81.482
0.132,-1.267,1.867,191.833,-100.891,-72.876
-0.011,-1.431,2.4,140.991,-100.281,-63.782
-0.101,-1.447,2.917,83.069,-88.928,-56.396
-0.125,-1.334,3.253,24.414,-71.533,-51.147
-0.041,-1.034,3.365,-26.611,-52.795,-39.429
0.095,-0.727,3.045,-69.031,-31.799,-20.264
0.207,-0.52,2.418,-102.966,-12.573,1.099
0.255,-0.355,1.806,-141.846,0.732,18.372
0.307,-0.187,1.254,-173.889,14.282,28.87
0.362,-0.046,0.766,-188.293,27.832,32.532
0.412,0.103,0.455,-194.58,33.813,34.424
0.441,0.239,0.32,-201.843,33.325,37.964
0.441,0.359,0.302,-203.308,31.189,41.138
0.419,0.466,0.329,-201.721,31.25,41.443
0.404,0.536,0.384,-201.599,33.936,39.185
0.396,0.552,0.433,-205.627,37.048,36.316
0.406,0.551,0.444,-211.487,38.452,34.119
0.419,0.535,0.427,-219.666,36.194,34.424
0.43,0.502,0.348,-228.088,31.738,38.269
0.429,0.48,0.239,-234.619,27.344,42.542
0.469,0.453,0.117,-237.305,25.391,44.189
0.443,0.441,0.033,-239.99,29.358,44.006
0.419,0.418,-0.001,-234.863,32.227,45.593
0.411,0.4,-0.066,-225.891,46.143,47.668
0.414,0.412,-0.105,-222.473,62.683,49.744
0.421,0.41,-0.143,-220.154,74.219,54.688
0.413,0.418,-0.15,-225.22,82.336,62.439
0.41,0.416,-0.143,-238.403,85.51,71.106
0.403,0.388,-0.175,-256.348,83.191,80.872
0.366,0.388,-0.288,-269.836,76.111,94.604
0.335,0.347,-0.444,-278.198,70.129,106.079
0.258,0.31,-0.569,-285.828,71.472,110.352
0.217,0.287,-0.655,-288.757,72.815,114.685
0.146,0.285,-0.74,-280.151,73.608,113.464
0.064,0.299,-0.796,-262.634,72.937,105.896
0.018,0.325,-0.784,-243.652,70.251,91.37
-0.002,0.344,-0.731,-227.112,64.697,71.655
0.003,0.32,-0.671,-219.299,56.946,51.331
0.111,0.209,-0.621,-222.839,43.762,37.72
0.203,0.16,-0.695,-229.004,26.855,35.645
0.215,0.185,-0.782,-245.483,13.489,46.753
0.223,0.177,-0.892,-266.296,4.089,67.078
0.213,0.163,-1.003,-280.64,11.963,82.153
0.174,0.151,-1.123,-285.339,32.654,90.393
0.095,0.169,-1.281,-277.954,57.434,91.553
0.012,0.205,-1.381,-262.939,79.102,86.914
-0.058,0.244,-1.417,-245.3,92.163,78.491
-0.119,0.25,-1.425,-228.76,93.262,66.345
-0.148,0.246,-1.417,-214.111,77.942,55.359
-0.128,0.213,-1.395,-210.144,50.11,48.401
-0.113,0.174,-1.357,-215.82,16.785,45.044
-0.088,0.131,-1.303,-225.159,-16.296,44.922
-0.052,0.082,-1.319,-231.445,-43.03,47.729
-0.036,0.024,-1.372,-234.741,-56.335,51.392
-0.037,-0.034,-1.454,-230.53,-54.993,53.833
-0.015,-0.131,-1.496,-213.257,-43.64,52.368
-0.07,-0.044,-1.732,-180.725,-30.334,43.884
-0.063,-0.05,-1.793,-169.373,-14.16,41.26
-0.09,-0.049,-1.822,-153.015,-0.549,37.354
-0.103,-0.035,-1.828,-132.202,4.883,30.334
-0.086,-0.038,-1.802,-111.45,3.479,26.428
-0.083,-0.068,-1.702,-94.788,-1.526,22.4
-0.033,-0.105,-1.632,-87.585,-11.719,16.663
0,-0.13,-1.576,-81.116,-27.039,13.062
0.02,-0.14,-1.511,-75.5,-40.466,13.062
0.031,-0.151,-1.44,-69.275,-48.95,13.916
0.065,-0.161,-1.386,-59.448,-50.11,12.878
0.096,-0.175,-1.347,-46.143,-42.786,8.85
0.124,-0.194,-1.322,-30.396,-29.907,2.93
0.142,-0.199,-1.285,-16.235,-12.817,-1.648
0.148,-0.186,-1.27,-4.639,5.371,-4.517
0.148,-0.178,-1.257,2.686,19.531,-7.385
0.145,-0.166,-1.241,6.775,26.428,-8.484
0.148,-0.155,-1.208,8.484,26.489,-8.484
0.151,-0.144,-1.174,7.324,21.606,-7.202
0.152,-0.138,-1.129,5.005,13.794,-4.456
0.156,-0.135,-1.083,3.235,5.615,-2.747
0.155,-0.127,-1.044,2.563,-0.427,-2.441
0.151,-0.119,-1,2.625,-1.77,-3.235
0.146,-0.119,-0.969,4.272,-1.16,-4.761
0.146,-0.11,-0.951,7.141,0.061,-6.287
0.148,-0.108,-0.936,8.667,0.793,-7.996
0.147,-0.095,-0.923,8.972,1.099,-8.789
0.146,-0.09,-0.911,8.484,1.343,-8.728
0.147,-0.081,-0.901,7.874,1.587,-9.277
0.15,-0.074,-0.897,6.226,2.136,-10.437
0.154,-0.072,-0.901,3.662,2.319,-11.169
0.161,-0.083,-0.908,1.343,1.831,-10.864
0.164,-0.087,-0.923,-0.488,0.183,-10.071
0.162,-0.085,-0.941,-2.014,-1.831,-8.728
0.159,-0.082,-0.958,-3.418,-3.967,-7.263
0.154,-0.081,-0.974,-4.578,-6.165,-6.165
0.154,-0.084,-0.987,-5.066,-8.118,-5.127
0.15,-0.083,-0.989,-5.31,-8.606,-4.028
0.149,-0.084,-0.996,-5.615,-6.47,-2.991
0.179,-0.256,-2.175,195.618,-28.137,-49.377
0.188,-0.212,-2.194,228.21,-10.193,-58.777
0.195,-0.145,-2.372,271.179,8.179,-58.594
0.184,-0.108,-2.418,309.204,21.851,-54.626
0.172,-0.044,-2.472,338.074,30.151,-53.528
0.131,0.013,-2.497,363.77,30.151,-56.824
0.103,0.119,-2.499,385.62,18.616,-62.073
0.079,0.177,-2.39,406.921,-3.357,-69.519
0.085,0.206,-2.247,424.072,-24.536,-80.627
0.094,0.203,-2.074,432.861,-37.964,-94.849
0.133,0.215,-1.91,445.862,-44.983,-109.68
0.152,0.268,-1.747,450.317,-47.424,-122.131
0.172,0.313,-1.588,447.815,-48.218,-123.047
0.197,0.293,-1.422,443.298,-49.072,-119.202
0.248,0.256,-1.277,439.819,-49.5,-115.967
0.271,0.274,-1.189,432.251,-45.837,-109.802
0.262,0.276,-1.16,424.988,-38.391,-98.694
0.238,0.282,-1.129,418.091,-33.875,-87.585
0.23,0.229,-1.048,412.415,-36.56,-81.726
0.21,0.177,-0.992,411.56,-42.297,-78.369
0.174,0.184,-0.977,410.95,-46.021,-73.73
0.131,0.175,-0.938,409.302,-51.27,-71.838
0.096,0.163,-0.886,409.119,-57.129,-72.937
0.025,0.156,-0.832,404.541,-59.326,-73.059
-0.062,0.067,-0.756,397.217,-60.852,-78.064
-0.099,-0.043,-0.62,389.465,-67.017,-88.745
-0.078,-0.198,-0.443,380.371,-78.308,-100.586
-0.089,-0.366,-0.262,369.995,-92.407,-108.215
-0.095,-0.509,-0.023,356.873,-106.689,-111.45
-0.076,-0.645,0.239,340.698,-117.249,-108.765
-0.078,-0.79,0.476,323.12,-118.286,-102.661
-0.045,-1.031,0.705,300.903,-110.474,-93.384
-0.037,-1.357,1.031,279.602,-101.013,-81.177
-0.115,-1.726,1.549,254.333,-90.698,-66.223
-0.313,-2.075,2.25,216.064,-74.463,-52.307
-0.501,-2.434,3.042,160.4,-45.105,-43.945
-0.479,-2.476,3.76,99.792,-7.446,-41.199
-0.239,-2.172,4,35.034,25.879,-36.255
0.032,-1.604,3.731,-23.01,39.49,-20.142
0.149,-1.252,2.847,-78.125,29.846,9.216
0.172,-0.953,1.91,-131.592,12.634,40.833
0.168,-0.702,1.171,-189.575,5.005,58.838
0.162,-0.515,0.723,-235.535,10.62,61.096
0.196,-0.352,0.468,-249.268,22.217,56.763
0.24,-0.159,0.45,-249.451,27.71,53.406
0.277,-0.009,0.554,-248.047,27.588,52.002
0.285,0.083,0.673,-257.812,27.71,51.27
0.316,0.107,0.71,-278.137,29.48,50.842
0.359,0.108,0.68,-305.237,28.625,52.734
0.402,0.079,0.604,-334.839,23.621,59.021
0.417,0.02,0.488,-359.619,18.982,70.374
0.387,-0.034,0.305,-372.803,22.522,85.51
0.331,-0.023,0.08,-375.549,38.33,99.365
0.294,0.012,-0.127,-363.464,55.298,105.042
0.251,0.053,-0.334,-347.107,73.914,103.516
0.248,0.107,-0.487,-335.999,84.29,100.525
0.264,0.166,-0.556,-325.317,82.153,95.764
0.309,0.197,-0.591,-324.402,75.745,90.271
0.359,0.192,-0.653,-336.304,70.557,90.149
0.37,0.152,-0.76,-357.605,68.054,99.06
0.363,0.107,-0.864,-383.118,69.214,114.624
0.297,0.049,-0.946,-408.325,73.059,131.409
0.167,0.025,-1.061,-417.297,78.43,146.057
0.039,0.015,-1.256,-393.982,85.266,150.574
-0.053,0.107,-1.315,-369.629,91.858,143.982
-0.062,0.178,-1.321,-341.797,94.421,123.474
-0.093,0.185,-1.315,-312.561,81.787,95.398
-0.07,0.148,-1.314,-290.649,55.42,70.496
0.004,0.065,-1.338,-284.485,28.137,53.04
0.069,0.008,-1.398,-294.556,7.263,47.058
0.113,0.003,-1.48,-307.739,-1.221,51.086
0.1,0.046,-1.555,-320.679,1.16,60.608
0.051,0.089,-1.582,-331.726,8.728,68.237
-0.01,0.119,-1.663,-342.224,19.409,72.998
-0.088,0.106,-1.755,-345.337,28.198,75.806
-0.166,0.094,-1.85,-339.172,29.541,76.111
-0.192,0.09,-1.985,-313.049,21.606,71.167
-0.188,0.083,-2.121,-272.461,6.104,61.89
-0.174,0.087,-2.147,-240.234,-13.306,53.833
-0.16,0.109,-2.099,-212.646,-31.25,44.8
-0.156,0.113,-1.993,-186.279,-49.255,32.837
-0.16,0.069,-1.878,-163.818,-64.27,20.142
-0.094,0.003,-1.765,-143.799,-78.308,12.085
-0.042,-0.053,-1.647,-127.808,-85.571,5.737
0.002,-0.08,-1.548,-118.225,-79.468,1.587
0.025,-0.136,-1.494,-113.953,-61.34,-3.723
0.056,-0.201,-1.469,-109.802,-38.513,-5.493
0.067,-0.246,-1.437,-102.417,-15.747,-1.831
0.073,-0.251,-1.437,-90.027,4.517,2.563
0.075,-0.235,-1.437,-67.2,19.165,2.869
0.089,-0.204,-1.442,-43.152,25.513,-1.77
0.101,-0.213,-1.416,-26.245,23.682,-7.996
0.118,-0.227,-1.377,-13.855,16.846,-11.658
0.14,-0.242,-1.323,-9.766,6.287,-12.085
0.156,-0.238,-1.259,-7.507,-3.54,-11.292
0.162,-0.235,-1.209,-4.089,-9.888,-10.132
0.173,-0.228,-1.148,-2.869,-12.207,-8.24
0.176,-0.219,-1.099,-2.319,-11.108,-6.958
0.176,-0.205,-1.054,-3.296,-8.057,-7.08
0.179,-0.199,-1.021,-3.357,-5.127,-7.996
0.185,-0.209,-0.983,-3.723,-2.563,-9.094
0.194,-0.211,-0.958,-4.333,-1.709,-8.728
0.196,-0.202,-0.943,-4.578,-1.709,-6.897
0.192,-0.183,-0.9,-6.348,-2.441,-4.456
0.188,-0.162,-0.886,-3.54,-3.906,-2.869
0.184,-0.152,-0.877,-2.441,-5.554,-2.563
0.177,-0.142,-0.856,-4.944,-6.348,-3.235
0.176,-0.13,-0.848,-7.568,-5.371,-3.723
0.17,-0.122,-0.854,-10.071,-3.601,-3.662
0.162,-0.119,-0.871,-12.817,-2.441,-3.113
0.155,-0.116,-0.896,-16.418,-2.319,-2.136
0.145,-0.115,-0.91,-19.348,-2.502,-1.221
0.127,-0.113,-0.925,-20.813,-2.136,-0.61
0.108,-0.116,-0.954,-16.479,-0.977,-0.366
0.097,-0.112,-0.991,-10.742,1.343,-1.038
0.091,-0.118,-1.019,-7.751,3.418,-2.136
0.083,-0.128,-1.038,-7.935,3.479,-2.991
0.076,-0.144,-1.053,-8.118,2.38,-3.54
0.078,-0.156,-1.065,-6.897,0.549,-3.906
0.196,-0.411,-2.091,134.521,18.921,-31.25
0.223,-0.49,-2.285,179.871,33.081,-41.077
0.218,-0.535,-2.533,234.924,47.974,-50.476
0.195,-0.51,-2.737,288.574,62.012,-56.091
0.154,-0.452,-2.844,339.661,70.068,-56.58
0.095,-0.296,-2.861,389.954,65.125,-58.96
0.05,-0.181,-2.79,439.697,45.166,-65.552
0.022,-0.117,-2.646,458.435,20.447,-71.96
0.011,-0.085,-2.502,476.501,-7.446,-80.811
0.005,0.011,-2.325,499.39,-36.621,-91.675
0.031,0.091,-2.104,507.568,-59.082,-102.356
0.058,0.097,-1.847,502.502,-72.021,-109.985
0.112,0.082,-1.594,505.554,-74.707,-115.54
0.176,0.128,-1.417,511.047,-64.453,-118.408
0.235,0.128,-1.239,506.042,-46.021,-115.051
0.25,0.1,-1.073,490.356,-29.358,-103.882
0.25,0.074,-0.939,484.558,-18.921,-90.576
0.226,0.116,-0.867,484.253,-9.399,-76.843
0.155,0.116,-0.749,467.957,-0.61,-67.566
0.081,0.067,-0.685,452.82,2.136,-64.026
0.031,0.003,-0.547,436.89,-0.671,-67.81
0.033,-0.02,-0.521,423.218,-6.348,-76.782
0.01,-0.082,-0.419,403.381,-17.944,-86.365
0.01,-0.152,-0.347,383.301,-29.663,-91.492
0.034,-0.223,-0.246,365.234,-39.429,-96.008
0.059,-0.302,-0.159,350.708,-46.204,-100.647
0.087,-0.381,-0.051,333.862,-50.659,-102.112
0.12,-0.455,0.074,317.993,-51.697,-99.487
0.167,-0.508,0.239,301.025,-51.88,-94.116
0.201,-0.534,0.413,283.02,-55.115,-87.341
0.208,-0.562,0.563,263.855,-61.951,-82.214
0.233,-0.611,0.738,240.417,-69.397,-79.895
0.251,-0.713,0.898,211.121,-74.768,-80.627
0.274,-0.838,1.108,183.105,-79.468,-81.238
0.264,-0.992,1.371,154.053,-79.773,-78.247
0.255,-1.118,1.712,120.85,-75.684,-70.679
0.212,-1.193,2.062,82.947,-66.895,-60.12
0.182,-1.211,2.392,38.574,-53.955,-54.077
0.165,-1.206,2.702,-8.728,-37.415,-43.274
0.203,-0.962,2.705,-51.819,-16.113,-24.17
0.293,-0.684,2.433,-80.688,-3.54,-6.592
0.329,-0.545,2.043,-116.211,-3.845,9.827
0.325,-0.416,1.65,-153.625,-10.803,26.672
0.311,-0.264,1.294,-180.42,-16.113,39.734
0.29,-0.136,0.985,-193.176,-14.648,48.157
0.272,-0.019,0.795,-207.031,-8.728,53.223
0.262,0.061,0.698,-220.581,-1.648,55.542
0.262,0.16,0.634,-232.422,1.953,55.298
0.259,0.222,0.622,-246.765,1.648,53.406
0.255,0.219,0.613,-265.93,1.038,51.392
0.259,0.192,0.571,-285.217,1.465,53.04
0.278,0.182,0.514,-301.575,2.319,57.251
0.291,0.173,0.451,-318.359,4.211,63.049
0.289,0.149,0.37,-333.374,4.333,70.251
0.277,0.069,0.229,-345.947,5.554,78.125
0.287,0.057,0.143,-352.6,7.507,89.6
0.291,0.042,0.003,-341.37,16.357,95.642
0.275,0.085,-0.12,-338.684,37.598,102.295
0.262,0.114,-0.258,-341.125,54.565,110.291
0.244,0.117,-0.352,-347.046,62.561,114.014
0.224,0.101,-0.462,-359.558,65.43,114.319
0.182,0.062,-0.636,-372.131,65.674,114.563
0.154,0.083,-0.863,-373.596,61.951,115.295
0.154,0.122,-1.049,-360.596,58.716,111.45
0.148,0.146,-1.167,-349.06,58.777,103.699
0.112,0.169,-1.202,-338.623,59.021,93.994
0.055,0.189,-1.197,-322.083,56.152,82.825
0.021,0.195,-1.147,-301.636,47.607,71.716
-0.005,0.208,-1.079,-281.738,36.255,60.181
0.005,0.192,-1.001,-269.348,23.987,47.791
0.137,0.145,-0.906,-261.536,10.071,37.17
0.036,0.075,-0.847,-276.611,-0.122,31.189
0.184,-0.007,-0.819,-298.34,-23.499,53.284
0.199,-0.085,-0.911,-281.006,-13.245,52.979
0.144,-0.119,-1.054,-292.053,5.92,52.368
0.112,-0.116,-1.279,-298.523,28.015,55.603
0.068,-0.076,-1.561,-287.048,57.8,58.289
-0.037,-0.005,-1.83,-270.02,83.191,58.96
-0.125,0.086,-2.06,-246.765,96.985,62.317
-0.15,0.09,-2.21,-223.206,88.867,62.988
-0.227,0.151,-2.263,-207.703,53.467,42.297
-0.222,0.131,-2.264,-197.815,1.343,31.25
-0.175,0.171,-2.188,-194.458,-53.528,28.564
-0.141,0.121,-2.039,-193.237,-100.952,26.306
-0.107,0.072,-1.944,-187.927,-124.695,25.146
-0.077,0.022,-1.881,-191.284,-123.84,26.306
-0.068,-0.078,-1.812,-188.538,-103.149,27.832
-0.051,-0.179,-1.826,-171.265,-69.031,27.161
-0.029,-0.208,-1.837,-148.193,-30.762,23.56
-0.007,-0.191,-1.843,-118.286,3.601,15.747
0.008,-0.172,-1.843,-84.778,26.306,3.296
-0.024,-0.171,-1.844,-52.002,31.921,-5.615
0.12,-0.396,-2.007,-42.175,24.536,-14.954
0.055,-0.06,-1.346,-58.167,5.737,-22.888
0.212,-0.194,-1.654,19.958,-10.925,-8.728
0.142,-0.181,-1.403,33.508,10.62,-24.475
0.167,-0.135,-1.3,20.63,-10.559,-23.926
0.18,-0.116,-1.187,27.1,-18.86,-21.851
0.194,-0.134,-1.104,29.297,-14.893,-22.583
0.21,-0.135,-1.026,28.809,-13.611,-23.071
0.202,-0.113,-0.976,32.349,-9.949,-21.118
0.159,-0.134,-0.976,28.503,-2.625,-21.24
0.247,-0.109,-0.909,14.526,-3.113,-15.198
0.232,-0.106,-0.893,15.381,-2.686,-11.841
0.222,-0.097,-0.849,13.489,-2.563,-10.01
0.219,-0.079,-0.841,15.93,-2.563,-9.583
0.214,-0.064,-0.822,17.456,-1.16,-11.353
0.212,-0.062,-0.802,12.146,-2.136,-10.986
0.205,-0.052,-0.799,5.92,-4.272,-8.667
0.197,-0.042,-0.796,2.563,-5.798,-6.226
0.19,-0.038,-0.798,-0.671,-5.798,-4.517
0.181,-0.041,-0.81,-1.526,-4.761,-3.601
0.164,-0.042,-0.828,-3.723,-2.319,-2.136
0.148,-0.037,-0.849,-7.507,0.549,-0.427
0.132,-0.032,-0.882,-11.047,2.014,1.465
0.121,-0.04,-0.909,-13.672,2.014,2.747
0.113,-0.047,-0.939,-13.306,0.427,3.662
0.101,-0.047,-0.958,-12.939,0.122,4.395
0.092,-0.044,-0.98,-12.024,1.404,4.517
0.415,-0.341,-1.945,170.959,-25.391,-46.265
0.416,-0.307,-1.841,173.706,-14.099,-41.992
0.413,-0.27,-1.911,202.759,-5.31,-41.87
0.401,-0.225,-1.863,235.535,-4.7,-46.387
0.389,-0.201,-1.858,263.306,-11.658,-51.941
0.41,-0.198,-1.821,292.603,-22.339,-57.8
0.431,-0.167,-1.768,318.542,-38.757,-59.814
0.394,-0.061,-1.671,346.558,-55.176,-57.983
0.362,0.075,-1.594,386.047,-64.453,-54.871
0.373,0.157,-1.447,401.428,-63.293,-52.673
0.39,0.186,-1.322,399.78,-53.894,-50.781
0.379,0.149,-1.172,390.32,-43.884,-48.035
0.387,0.124,-1.084,389.893,-37.231,-41.992
0.391,0.2,-1.071,406.128,-29.724,-33.813
0.374,0.265,-1.074,420.715,-21.118,-27.588
0.375,0.272,-1.034,412.415,-19.958,-23.682
0.358,0.247,-0.965,394.47,-17.883,-19.165
0.32,0.269,-0.915,386.719,-12.329,-11.536
0.259,0.269,-0.849,380.31,-5.432,-6.348
0.198,0.261,-0.772,378.784,-0.488,-7.996
0.173,0.238,-0.717,380.188,2.258,-16.113
0.151,0.203,-0.637,368.896,-1.221,-26.917
0.154,0.151,-0.536,360.596,-14.465,-35.706
0.169,0.099,-0.437,353.577,-34.485,-42.725
0.168,0.028,-0.352,342.834,-52.795,-48.279
0.216,-0.043,-0.255,331.238,-65.552,-48.523
0.268,-0.106,-0.161,324.524,-70.19,-47.546
0.297,-0.175,-0.058,322.693,-70.313,-42.603
0.274,-0.234,0.097,313.721,-67.993,-35.583
0.249,-0.269,0.274,302.917,-65.552,-32.41
0.187,-0.27,0.444,289.49,-67.932,-34.851
0.111,-0.305,0.624,270.081,-77.576,-43.762
0.061,-0.393,0.844,244.995,-96.069,-60.059
0.021,-0.479,1.102,216.309,-122.131,-79.163
-0.005,-0.633,1.419,185.547,-150.696,-94.177
-0.014,-0.908,1.814,152.283,-168.579,-100.891
-0.098,-1.168,2.298,122.986,-161.377,-94.055
-0.18,-1.245,2.809,94.299,-120.056,-71.655
-0.154,-1.172,3.12,65.796,-49.683,-30.518
-0.06,-0.915,3.055,39.856,24.658,4.395
0.048,-0.692,2.62,7.568,78.186,32.349
0.099,-0.467,2.039,-31.433,94.971,54.382
0.145,-0.225,1.514,-69.336,83.313,67.566
0.171,-0.048,1.054,-107.971,61.829,70.007
0.232,0.053,0.733,-143.555,42.114,62.378
0.318,0.121,0.564,-164.185,31.25,48.523
0.383,0.173,0.523,-173.767,28.503,36.682
0.428,0.216,0.539,-175.049,32.471,32.593
0.456,0.252,0.604,-177.917,41.199,37.781
0.459,0.273,0.622,-184.204,53.162,48.035
0.458,0.28,0.628,-200.073,63.416,58.35
0.467,0.291,0.576,-220.825,68.359,66.833
0.438,0.308,0.503,-245.178,65.369,74.219
0.477,0.301,0.39,-269.653,56.152,80.2
0.487,0.264,0.297,-290.161,42.664,82.764
0.433,0.206,0.225,-289.368,30.273,83.435
0.4,0.228,0.057,-278.259,44.128,85.51
0.391,0.237,-0.05,-277.649,59.204,90.82
0.349,0.251,-0.11,-278.015,71.472,98.45
0.327,0.256,-0.149,-282.532,81.97,108.215
0.277,0.287,-0.228,-289.673,90.515,116.333
0.237,0.308,-0.319,-299.316,96.375,122.803
0.199,0.299,-0.427,-310.547,100.464,124.939
0.135,0.282,-0.52,-317.81,98.633,123.84
0.067,0.267,-0.605,-319.946,91.492,119.629
0.013,0.26,-0.63,-316.833,77.148,111.877
-0.038,0.23,-0.688,-299.805,58.838,96.313
-0.048,0.223,-0.779,-277.039,38.147,77.698
-0.026,0.248,-0.856,-249.756,18.799,60.059
0.013,0.252,-0.876,-231.812,10.559,45.471
0.053,0.201,-0.879,-222.229,16.663,35.217
0.084,0.15,-0.912,-220.886,30.396,32.166
0.09,0.141,-0.959,-226.257,39.124,38.391
0.07,0.178,-1,-236.694,38.269,49.805
0.039,0.229,-1.053,-254.089,36.621,60.608
-0.004,0.256,-1.121,-278.442,38.635,68.542
-0.05,0.266,-1.178,-306.824,42.114,72.754
-0.108,0.216,-1.334,-329.224,41.992,72.998
-0.157,0.177,-1.536,-327.942,33.386,70.007
-0.167,0.209,-1.635,-309.387,17.273,62.683
-0.171,0.254,-1.693,-286.743,2.136,47.913
-0.195,0.264,-1.717,-262.329,-16.479,31.86
-0.174,0.247,-1.704,-244.995,-42.419,19.836
-0.133,0.193,-1.683,-240.906,-65.491,11.658
-0.082,0.101,-1.681,-250.122,-74.585,7.202
-0.037,-0.019,-1.74,-270.081,-62.561,7.141
-0.024,-0.165,-1.891,-296.448,-33.325,11.414
-0.06,-0.261,-2.104,-313.232,-0.732,19.226
-0.069,-0.322,-2.289,-306.58,23.804,27.161
-0.021,-0.448,-2.449,-270.874,34.363,35.583
-0.068,-0.401,-2.515,-209.717,38.208,54.199
-0.068,-0.223,-2.372,-135.864,39.734,67.566
-0.114,-0.058,-2.172,-65.247,35.4,60.791
-0.146,-0.01,-1.91,-17.395,17.09,42.542
-0.094,-0.031,-1.642,1.099,-16.235,25.574
-0.046,-0.045,-1.397,2.808,-49.255,13.855
-0.002,-0.028,-1.169,-0.061,-77.82,8.301
0.04,-0.016,-0.981,-3.235,-97.534,7.874
0.079,-0.017,-0.829,-7.385,-99.548,7.446
0.123,-0.025,-0.726,-8.728,-84.595,4.395
0.166,-0.064,-0.665,-8.606,-56.702,-0.793
0.184,-0.103,-0.642,-7.568,-22.461,-3.784
0.189,-0.11,-0.664,-5.432,10.864,-4.578
0.194,-0.093,-0.733,-2.136,36.438,-6.042
0.204,-0.088,-0.802,-0.916,47.058,-8.789
0.207,-0.101,-0.855,-1.77,42.786,-9.827
0.217,-0.105,-0.889,-3.479,30.151,-7.019
0.229,-0.092,-0.904,-7.141,17.09,-2.991
0.23,-0.078,-0.911,-12.39,6.348,-0.854
0.223,-0.078,-0.903,-17.883,-1.526,-0.61
0.222,-0.081,-0.906,-21.423,-5.554,-1.099
0.223,-0.089,-0.926,-23.254,-5.981,-1.953
0.221,-0.107,-0.949,-24.231,-3.235,-3.052
0.211,-0.132,-0.973,-24.78,0,-3.54
0.2,-0.151,-1.016,-23.743,4.578,-2.991
0.194,-0.151,-1.055,-21.484,8.911,-2.441
0.189,-0.161,-1.098,-20.691,12.268,-1.892
0.178,-0.166,-1.124,-21.545,14.221,-0.305
0.163,-0.171,-1.141,-20.142,14.587,1.282
0.162,-0.246,-2.179,113.525,-16.052,-23.132
0.138,-0.175,-2.189,142.883,-20.569,-29.175
0.126,-0.14,-2.146,171.387,-25.391,-35.156
0.145,-0.134,-2.08,197.205,-25.757,-41.504
0.16,-0.119,-2.089,222.9,-15.686,-46.448
0.161,-0.068,-2.178,248.291,3.479,-47.913
0.15,-0.016,-2.242,268.494,24.109,-47.119
0.146,-0.001,-2.303,287.476,39.307,-46.57
0.144,-0.032,-2.369,309.448,43.518,-48.157
0.108,-0.011,-2.422,332.336,33.752,-50.415
0.083,0.044,-2.385,356.018,11.108,-53.528
0.061,0.087,-2.245,381.042,-19.165,-61.462
0.045,0.117,-2.077,402.405,-50.72,-73.975
0.06,0.142,-1.937,415.71,-72.51,-86.914
0.082,0.163,-1.848,424.438,-78.613,-93.689
0.115,0.139,-1.777,430.237,-76.477,-94.36
0.141,0.077,-1.672,443.176,-75.134,-92.896
0.165,0.064,-1.541,461.792,-70.313,-88.562
0.156,0.031,-1.397,472.9,-59.814,-79.773
0.112,-0.02,-1.214,474.976,-50.293,-70.068
0.076,-0.064,-1.053,475.281,-48.218,-61.951
0.04,-0.092,-0.922,473.206,-53.162,-56.396
-0.027,-0.117,-0.828,472.351,-57.8,-54.749
-0.046,-0.205,-0.687,466.614,-59.509,-58.655
-0.011,-0.307,-0.512,455.505,-56.763,-63.782
0.037,-0.406,-0.312,440.063,-55.908,-64.636
0.068,-0.45,-0.17,423.218,-52.551,-56.702
0.087,-0.486,-0.068,406.433,-45.166,-46.204
0.092,-0.495,0.012,392.029,-37.781,-38.025
0.078,-0.489,0.122,375.366,-37.048,-35.706
0.049,-0.514,0.246,356.323,-44.922,-40.71
0.052,-0.627,0.396,334.9,-59.57,-53.162
0.077,-0.764,0.614,310.913,-80.383,-69.153
0.088,-1,0.959,285.889,-102.539,-81.604
0.053,-1.277,1.429,258.85,-120.056,-87.646
-0.07,-1.581,2.005,228.21,-127.502,-86.67
-0.219,-1.851,2.645,192.322,-118.591,-79.407
-0.269,-1.976,3.27,146.973,-91.614,-70.74
-0.21,-1.841,3.616,90.576,-55.908,-56.213
-0.029,-1.504,3.368,24.963,-20.691,-32.166
0.127,-1.198,2.647,-47.852,0.427,-5.371
0.226,-0.877,1.947,-120.239,5.981,20.935
0.276,-0.573,1.32,-173.889,6.775,44.617
0.297,-0.268,0.869,-203.003,9.827,56.824
0.309,-0.005,0.564,-210.388,17.944,57.617
0.306,0.197,0.431,-209.9,20.691,54.016
0.278,0.332,0.434,-209.045,13.916,46.57
0.264,0.404,0.502,-210.571,2.93,35.095
0.258,0.411,0.578,-216.309,-4.761,21.79
0.283,0.357,0.628,-223.938,-8.728,9.399
0.318,0.31,0.667,-234.314,-11.047,2.991
0.34,0.28,0.647,-247.07,-12.268,4.456
0.358,0.257,0.529,-260.864,-7.996,10.62
0.371,0.237,0.373,-273.132,0.671,18.677
0.394,0.258,0.219,-280.396,12.573,28.992
0.391,0.281,0.092,-282.959,24.414,41.199
0.355,0.311,-0.022,-280.701,36.255,53.894
0.343,0.337,-0.109,-274.597,49.438,63.049
0.293,0.348,-0.189,-271.79,60.913,67.505
0.253,0.401,-0.283,-276.672,63.965,70.618
0.224,0.406,-0.374,-285.156,55.237,72.327
0.237,0.414,-0.461,-294.678,42.725,72.327
0.229,0.401,-0.526,-297.607,34.058,70.251
0.228,0.365,-0.561,-296.448,38.452,69.824
0.215,0.343,-0.631,-294.556,52.246,71.472
0.166,0.358,-0.73,-288.696,64.758,73.242
0.11,0.373,-0.832,-280.457,73.853,72.998
0.087,0.365,-0.886,-266.724,81.299,68.604
0.093,0.293,-0.892,-251.526,84.473,61.218
0.093,0.284,-0.866,-241.272,77.087,58.167
0.058,0.345,-0.821,-240.723,55.908,58.777
0.043,0.341,-0.771,-250,30.518,55.847
0.092,0.296,-0.767,-263.794,12.024,49.744
0.147,0.241,-0.802,-283.203,3.906,46.265
0.177,0.085,-0.911,-308.044,11.108,48.889
0.133,0.125,-1.046,-328.064,32.776,58.167
0.114,0.159,-1.324,-298.645,59.814,78.369
0.043,0.262,-1.518,-252.502,102.234,79.773
-0.067,0.383,-1.662,-220.886,131.348,67.505
-0.137,0.424,-1.751,-198.425,129.578,65.857
-0.165,0.378,-1.777,-193.054,96.436,61.401
-0.144,0.42,-1.744,-204.59,34.546,43.762
-0.123,0.44,-1.704,-218.994,-33.081,36.316
-0.09,0.437,-1.662,-236.877,-88.745,27.893
-0.005,0.352,-1.678,-252.747,-118.958,22.156
0.047,0.246,-1.687,-261.902,-119.019,28.137
0.051,0.171,-1.657,-258.789,-93.75,41.443
0.016,0.157,-1.629,-243.042,-54.504,52.979
-0.027,0.143,-1.609,-221.558,-15.747,55.664
-0.076,0.12,-1.649,-191.04,9.766,47.363
-0.104,0.137,-1.697,-164.185,20.081,33.569
-0.12,0.12,-1.718,-149.597,17.212,19.897
-0.1,-0.034,-1.884,-145.813,2.869,5.981
-0.017,0.035,-1.56,-150.94,-11.719,-10.193
0.052,-0.025,-1.682,-118.958,-35.522,-0.061
0.038,-0.059,-1.586,-93.445,-25.696,5.432
0.033,-0.04,-1.541,-69.214,-18.86,4.089
0.031,-0.022,-1.481,-49.866,-9.644,1.282
0.051,-0.049,-1.424,-43.091,-1.526,-2.258
0.088,-0.079,-1.375,-38.696,1.221,-5.615
0.058,-0.125,-1.33,-30.884,0.427,-8.667
0.114,-0.122,-1.313,-21.057,0.244,-9.094
0.148,-0.108,-1.279,-12.756,-3.052,-9.583
0.164,-0.106,-1.231,-4.761,-10.071,-10.62
0.176,-0.094,-1.176,2.808,-11.353,-10.62
0.181,-0.08,-1.121,9.827,-9.705,-8.789
0.181,-0.072,-1.072,14.282,-8.301,-8.911
0.177,-0.071,-1.029,14.771,-7.019,-11.108
0.176,-0.072,-0.992,13.672,-6.287,-12.39
0.177,-0.073,-0.957,13,-6.653,-11.658
0.176,-0.071,-0.928,11.597,-6.409,-10.254
0.172,-0.071,-0.912,9.949,-5.188,-8.789
0.164,-0.063,-0.898,9.216,-3.906,-7.385
0.157,-0.065,-0.889,10.193,-3.296,-6.592
0.154,-0.061,-0.883,12.634,-3.601,-5.737
0.146,-0.042,-0.882,13.733,-4.883,-4.272
0.13,-0.025,-0.874,11.963,-7.324,-2.93
0.121,-0.016,-0.862,8.972,-9.827,-2.197
0.112,-0.022,-0.853,5.676,-10.803,-1.892
-0.354,-1.765,2.12,273.071,-91.431,-52.795
-0.607,-2.121,2.848,228.638,-89.966,-61.279
-0.712,-2.333,3.532,174.255,-77.698,-79.59
-0.559,-2.263,3.872,102.539,-54.932,-89.233
-0.25,-1.928,3.618,17.517,-28.687,-76.477
0.006,-1.523,2.838,-69.153,-4.517,-43.579
0.138,-1.082,1.981,-140.991,16.479,-3.54
0.183,-0.669,1.289,-193.542,36.499,32.288
0.182,-0.327,0.769,-222.778,51.025,56.03
0.172,-0.046,0.437,-228.271,57.678,65.125
0.172,0.167,0.334,-223.206,54.016,63.049
0.167,0.317,0.407,-218.506,42.175,53.467
0.179,0.383,0.525,-220.337,29.236,40.1
0.2,0.383,0.598,-231.445,20.386,26.733
0.256,0.327,0.627,-248.962,15.198,17.212
0.349,0.265,0.635,-272.583,12.146,14.404
0.418,0.184,0.623,-301.147,12.573,19.958
0.388,0.082,0.481,-321.96,20.752,33.752
0.334,0.104,0.189,-324.585,39.49,51.514
0.31,0.172,-0.084,-312.134,59.875,66.895
0.265,0.273,-0.295,-290.955,74.585,74.036
0.222,0.369,-0.374,-269.409,76.904,72.021
0.177,0.393,-0.343,-254.089,69.946,61.218
0.214,0.391,-0.328,-253.296,57.983,47.241
0.268,0.375,-0.315,-267.151,42.419,39.551
0.324,0.332,-0.363,-289.062,29.602,42.297
0.392,0.276,-0.416,-322.51,30.762,52.551
0.383,0.206,-0.476,-353.943,45.654,72.388
0.287,0.158,-0.643,-374.451,73.12,98.816
0.128,0.185,-0.974,-369.873,103.699,120.361
0.046,0.284,-1.252,-333.923,126.892,124.756
-0.002,0.391,-1.376,-287.537,138.306,113.098
-0.054,0.467,-1.367,-249.878,129.639,93.079
-0.055,0.464,-1.32,-229.492,97.717,70.679
-0.022,0.422,-1.299,-231.812,54.993,50.964
0.026,0.399,-1.313,-248.901,17.944,38.94
0.091,0.402,-1.317,-269.714,-4.822,34.607
0.117,0.402,-1.304,-292.358,-9.521,37.415
0.102,0.406,-1.318,-313.782,3.845,44.922
0.063,0.363,-1.374,-330.505,29.724,52.063
-0.013,0.312,-1.466,-334.595,56.763,59.631
-0.076,0.28,-1.585,-317.932,76.782,67.749
-0.143,0.324,-1.722,-283.936,87.708,69.336
-0.172,0.448,-1.812,-250.916,88.44,61.462
-0.216,0.489,-1.844,-227.722,68.604,47.546
-0.215,0.463,-1.786,-215.149,31.372,30.945
-0.068,0.347,-1.715,-207.275,-15.747,12.024
-0.017,0.266,-1.631,-209.473,-59.265,-2.991
0.023,0.192,-1.571,-212.646,-93.018,-1.465
0.026,0.251,-1.362,-210.388,-109.741,1.465
0.079,0.174,-1.282,-197.571,-119.141,12.39
0.079,0.065,-1.292,-169.312,-102.966,6.897
0.095,0.075,-1.298,-131.348,-69.885,0.732
0.111,0.107,-1.302,-101.746,-27.405,5.188
0.096,0.089,-1.312,-81.97,5.005,9.888
0.096,0.089,-1.326,-67.627,21.606,8.179
0.097,0.067,-1.339,-60.059,21.545,2.869
0.118,0.032,-1.326,-58.838,8.667,-0.61
0.136,0.011,-1.298,-58.899,-8.545,-0.793
0.132,-0.007,-1.262,-57.861,-21.912,-0.61
0.142,-0.024,-1.233,-56.885,-27.893,1.099
0.157,-0.037,-1.218,-56.58,-28.748,5.615
0.163,-0.047,-1.209,-55.725,-26.245,7.507
0.152,-0.058,-1.207,-50.476,-19.592,6.531
0.158,-0.062,-1.207,-43.518,-11.353,6.836
0.159,-0.074,-1.208,-37.292,-3.357,6.531
0.155,-0.079,-1.219,-29.968,2.991,3.601
0.155,-0.077,-1.225,-22.4,6.531,0.061
0.164,-0.088,-1.215,-16.968,6.47,-2.319
0.17,-0.1,-1.192,-14.16,3.113,-4.028
0.171,-0.107,-1.159,-12.146,-2.869,-4.883
0.174,-0.107,-1.113,-11.169,-9.766,-5.066
0.169,-0.103,-1.063,-10.681,-16.357,-4.883
0.171,-0.102,-1.016,-11.047,-21.484,-5.005
0.176,-0.099,-0.972,-10.559,-25.696,-5.554
0.174,-0.097,-0.934,-9.033,-27.344,-5.92
0.183,-0.083,-0.904,-7.996,-24.841,-6.409
0.195,-0.078,-0.89,-8.545,-19.165,-5.859
0.206,-0.088,-0.897,-10.437,-11.597,-5.493
0.214,-0.094,-0.928,-12.024,-4.333,-4.639
0.212,-0.074,-0.977,-12.817,-0.122,-2.747
0.208,-0.048,-1.02,-13.733,0.732,-1.526
0.211,-0.037,-1.051,-14.221,-1.953,-1.892
0.206,-0.04,-1.064,-13.123,-6.226,-4.15
0.212,-0.043,-1.068,-11.292,-9.827,-5.066
0.214,-0.054,-1.064,-10.742,-10.986,-4.15
0.208,-0.059,-1.054,-10.254,-10.071,-3.296
0.204,-0.066,-1.047,-10.132,-8.24,-2.625
0.2,-0.08,-1.043,-9.521,-6.897,-2.441
0.205,-0.081,-1.046,-7.935,-6.653,-2.563
0.206,-0.093,-1.039,-6.287,-7.019,-3.052
0.207,-0.101,-1.032,-4.7,-6.775,-2.747
0.21,-0.1,-1.025,-3.235,-5.859,-2.136
0.207,-0.103,-1.013,-2.38,-5.005,-2.319
0.207,-0.108,-1.001,-2.197,-4.211,-2.502
0.209,-0.114,-0.994,-2.502,-3.052,-2.38
0.21,-0.117,-0.985,-2.869,-2.014,-2.686
0.21,-0.121,-0.983,-3.052,-1.038,-2.93
0.209,-0.126,-0.981,-2.991,-0.854,-2.808
0.213,-0.13,-0.981,-2.93,-1.221,-2.38
0.21,-0.131,-0.989,-2.991,-1.648,-1.404
0.206,-0.119,-0.995,-1.892,-2.258,0.488
0.205,-0.106,-0.998,-0.977,-2.625,1.282
0.202,-0.103,-0.997,-0.793,-2.319,1.282
0.199,-0.103,-0.992,-0.977,-1.831,0.916
0.199,-0.097,-0.992,-1.038,-0.61,0.61
0.197,-0.09,-0.996,-1.221,0.854,0.183
0.2,-0.086,-0.999,-1.038,1.465,-0.732
0.2,-0.083,-0.997,-0.977,1.16,-1.526
0.197,-0.08,-0.992,-1.282,0.916,-1.709
0.198,-0.08,-0.984,-1.892,1.465,-1.648
0.198,-0.082,-0.98,-2.625,1.526,-1.404
0.199,-0.089,-0.98,-2.563,1.343,-0.854
0.2,-0.095,-0.987,-0.916,1.038,0.244
0.201,-0.083,-0.991,2.075,0.122,0.854
0.2,-0.07,-0.99,4.028,-0.732,0.427
0.198,-0.073,-0.982,4.211,-2.014,0.183
0.198,-0.078,-0.973,3.418,-2.991,-0.183
0.199,-0.079,-0.968,1.404,-3.113,-0.488
0.173,0.235,-2.159,337.585,83.679,-41.748
0.138,0.229,-2.125,338.928,65.369,-50.964
0.115,0.251,-2.084,343.018,42.908,-60.852
0.111,0.286,-2.023,352.783,20.996,-71.777
0.112,0.302,-1.971,367.126,4.517,-83.13
0.13,0.295,-1.855,383.789,-5.066,-91.614
0.201,0.239,-1.691,398.193,-10.132,-96.741
0.236,0.229,-1.511,401.855,-13.123,-96.13
0.244,0.31,-1.395,394.836,-16.357,-85.083
0.255,0.364,-1.303,383.057,-19.043,-71.35
0.236,0.416,-1.253,375.122,-20.569,-62.927
0.196,0.495,-1.244,375,-21.423,-62.378
0.176,0.505,-1.208,377.197,-22.217,-67.383
0.176,0.481,-1.141,379.761,-23.865,-75.989
0.216,0.391,-1.081,379.15,-26.367,-81.787
0.225,0.379,-1.023,374.268,-31.799,-78.491
0.172,0.342,-0.979,372.192,-37.964,-70.923
0.159,0.278,-0.897,379.028,-37.231,-67.688
0.118,0.211,-0.781,385.498,-31.433,-65.43
0.107,0.091,-0.636,388.245,-26.245,-62.378
0.13,0.022,-0.486,387.146,-21.545,-61.035
0.116,-0.037,-0.377,377.686,-19.409,-57.495
0.093,-0.071,-0.333,367.065,-19.409,-53.345
0.063,-0.099,-0.29,358.521,-21.118,-52.063
0.06,-0.149,-0.22,350.342,-26.978,-55.176
0.073,-0.224,-0.149,344.666,-35.706,-63.171
0.097,-0.308,-0.048,338.318,-45.593,-72.021
0.113,-0.462,0.123,328.674,-58.838,-79.651
0.144,-0.648,0.36,318.604,-72.51,-89.294
0.144,-0.917,0.701,303.528,-85.205,-98.389
0.079,-1.228,1.123,280.884,-96.802,-107.3
-0.029,-1.587,1.663,246.948,-108.765,-118.958
-0.159,-1.965,2.276,201.172,-122.314,-129.517
-0.183,-2.269,2.888,148.987,-126.465,-132.996
-0.095,-2.335,3.309,88.501,-112.366,-124.023
0.076,-2.081,3.238,20.264,-78.735,-95.825
0.242,-1.695,2.651,-50.171,-35.278,-52.551
0.312,-1.236,1.936,-114.319,-1.038,-5.188
0.327,-0.803,1.341,-165.1,16.968,39.185
0.303,-0.393,0.871,-194.824,26.184,69.092
0.286,-0.053,0.538,-203.918,33.752,81.543
0.299,0.174,0.376,-202.637,37.17,82.52
0.34,0.312,0.396,-200.134,31.555,78.491
0.367,0.358,0.516,-200.806,22.583,75.256
0.383,0.369,0.63,-206.238,19.47,75.5
0.377,0.34,0.679,-217.407,21.423,78.857
0.356,0.317,0.664,-230.103,24.963,83.435
0.33,0.314,0.619,-243.896,27.039,89.294
0.294,0.301,0.524,-259.705,26.245,95.215
0.243,0.313,0.383,-269.653,25.146,97.778
0.235,0.344,0.273,-272.4,26.001,93.872
0.236,0.356,0.245,-276.978,23.01,87.646
0.247,0.37,0.255,-288.879,14.343,83.313
0.239,0.361,0.269,-309.387,6.47,82.825
0.22,0.293,0.248,-326.355,3.662,84.961
0.199,0.256,0.154,-342.834,8.118,83.557
0.19,0.225,0.037,-356.201,18.799,86.304
0.187,0.176,-0.084,-369.08,33.997,98.145
0.129,0.137,-0.189,-381.348,53.223,114.075
0.046,0.153,-0.354,-388.611,71.899,127.563
-0.075,0.164,-0.579,-387.817,87.158,132.69
-0.164,0.221,-0.845,-366.211,95.947,127.625
-0.185,0.288,-1.001,-336.609,95.459,111.267
-0.201,0.337,-1.058,-302.124,83.496,88.989
-0.175,0.335,-1.023,-275.33,59.509,65.186
-0.114,0.262,-0.97,-258.301,32.837,42.725
-0.048,0.185,-0.932,-259.033,11.841,28.564
-0.009,0.142,-0.917,-270.264,-0.916,25.879
0.016,0.134,-0.897,-286.621,-5.676,31.616
0.025,0.107,-0.901,-307.739,-2.93,39.856
0.004,0.061,-1.012,-328.125,10.193,48.828
-0.033,0.015,-1.222,-341.492,33.691,59.143
-0.096,0.037,-1.479,-337.158,60.974,68.97
-0.151,0.138,-1.719,-313.416,83.13,73.914
-0.207,0.26,-1.888,-275.513,88.562,72.51
-0.215,0.352,-1.916,-238.403,73.669,62.622
-0.226,0.399,-1.879,-209.717,37.048,44.067
-0.203,0.399,-1.794,-195.068,-14.587,24.841
-0.161,0.37,-1.686,-194.885,-65.979,9.399
-0.128,0.373,-1.598,-205.933,-105.652,-0.61
-0.092,0.353,-1.531,-224.06,-128.357,-7.324
-0.039,0.322,-1.465,-241.76,-132.751,-13.916
0.001,0.216,-1.488,-259.521,-121.216,-18.799
0.42,0.113,-1.3,-269.47,-99.67,-19.775
-0.172,-0.012,-1.533,-248.047,-58.899,-20.386
0.263,-0.108,-1.645,-184.387,-11.414,27.527
0.106,-0.069,-1.746,-128.235,41.382,44.495
0.013,0.028,-1.722,-105.53,51.147,29.907
0.005,0.085,-1.716,-95.154,29.846,17.883
0.065,-0.038,-1.643,-96.924,-6.287,10.01
0.115,-0.17,-1.574,-96.558,-42.114,4.395
0.158,-0.2,-1.51,-90.454,-63.232,2.441
0.209,-0.187,-1.449,-79.712,-69.58,6.287
0.17,-0.191,-1.396,-67.993,-61.768,10.437
0.173,-0.184,-1.354,-54.81,-41.565,14.587
0.167,-0.169,-1.321,-46.387,-14.16,16.785
0.128,-0.171,-1.338,-40.771,13.489,14.465
0.143,-0.177,-1.356,-34.241,32.104,9.827
0.153,-0.19,-1.37,-28.992,36.56,4.211
0.154,-0.186,-1.375,-25.635,31.189,0.488
0.164,-0.205,-1.348,-17.212,17.639,-0.977
0.162,-0.206,-1.29,-3.357,3.418,-1.831
0.157,-0.189,-1.219,7.019,-5.859,-2.258
0.148,-0.17,-1.139,12.573,-11.841,-2.747
0.145,-0.163,-1.066,14.771,-14.893,-3.906
0.156,-0.175,-1.004,14.832,-15.32,-5.615
0.165,-0.191,-0.945,14.771,-13.733,-5.92
0.165,-0.194,-0.9,13.428,-9.46,-3.479
0.148,-0.176,-0.876,12.146,-3.662,-0.061
0.145,-0.137,-0.867,12.39,0.366,2.502
0.136,-0.102,-0.861,11.536,1.648,1.77
0.131,-0.08,-0.858,8.789,0.61,0.305
0.135,-0.077,-0.848,5.493,-1.831,-1.038
0.134,-0.08,-0.835,3.113,-4.7,-1.77
0.135,-0.075,-0.827,1.587,-6.409,-2.075
0.129,-0.065,-0.828,0.427,-6.531,-2.258
0.125,-0.057,-0.84,-0.854,-5.066,-2.319
0.124,-0.066,-0.862,-2.869,-2.258,-2.319
0.126,-0.074,-0.895,-4.639,0.793,-1.892
-0.259,-2.033,2.358,265.625,-179.504,-156.86
-0.188,-2.199,3.25,210.876,-168.274,-165.466
-0.087,-2.056,3.99,131.653,-145.752,-160.156
0.183,-1.62,4,60.913,-105.469,-110.596
0.405,-1.305,3.654,-5.493,-47.852,-46.814
0.443,-1.106,2.616,-80.261,11.475,15.32
0.41,-0.844,1.622,-150.452,51.331,72.571
0.343,-0.543,0.909,-204.407,70.679,120.667
0.274,-0.244,0.414,-229.614,79.956,148.621
0.242,0.044,0.12,-231.995,87.708,158.691
0.232,0.256,0.032,-226.257,86.548,158.752
0.21,0.396,0.091,-217.224,74.219,150.146
0.197,0.487,0.219,-207.52,56.396,134.949
0.194,0.533,0.373,-203.43,41.321,117.126
0.207,0.544,0.492,-209.229,31.494,100.525
0.232,0.531,0.555,-223.267,24.109,86.792
0.249,0.503,0.558,-244.08,18.311,76.904
0.281,0.441,0.499,-267.944,15.991,72.51
0.276,0.367,0.397,-286.377,17.212,74.646
0.263,0.326,0.254,-293.457,25.085,83.557
0.23,0.309,0.078,-288.269,40.344,96.13
0.19,0.33,-0.078,-274.353,59.387,109.131
0.146,0.337,-0.165,-260.315,77.515,121.277
0.099,0.354,-0.198,-249.268,88.684,130.188
0.009,0.387,-0.203,-245.483,87.952,133.972
-0.01,0.386,-0.22,-254.15,75.562,131.47
-0.037,0.359,-0.262,-276.978,54.504,121.155
-0.047,0.29,-0.346,-299.622,26.917,110.474
-0.044,0.266,-0.439,-327.454,6.47,100.891
-0.03,0.192,-0.56,-349.548,3.418,99.121
-0.016,0.084,-0.725,-362.488,18.433,106.14
-0.104,-0.014,-0.947,-354.187,42.603,121.155
-0.167,0.081,-1.189,-317.2,71.106,137.085
-0.223,0.242,-1.302,-272.339,90.576,140.259
-0.288,0.38,-1.317,-243.042,87.891,129.15
-0.296,0.422,-1.241,-232.178,52.856,110.046
-0.266,0.39,-1.138,-227.417,-2.93,82.703
-0.184,0.309,-1.006,-229.736,-63.354,53.345
-0.073,0.19,-0.859,-238.281,-113.403,30.701
0.003,0.071,-0.806,-254.7,-134.827,20.63
0.059,-0.059,-0.789,-285.706,-122.498,25.94
0.03,-0.132,-0.935,-305.542,-79.773,43.335
0.002,-0.159,-1.136,-316.772,-26.367,61.218
-0.099,-0.146,-1.416,-305.054,22.949,74.097
-0.185,-0.038,-1.703,-289.246,54.138,81.604
-0.228,0.08,-1.953,-267.578,61.829,83.984
-0.267,0.169,-2.105,-243.835,46.936,79.285
-0.282,0.223,-2.17,-226.624,12.146,70.19
-0.287,0.257,-2.136,-211.06,-32.471,58.105
-0.278,0.265,-2.047,-196.655,-75.745,44.861
-0.26,0.253,-1.93,-187.622,-106.75,32.288
-0.228,0.218,-1.793,-182.922,-123.413,22.278
-0.187,0.157,-1.639,-184.753,-125.671,13.184
-0.157,0.076,-1.557,-183.96,-113.342,4.883
-0.092,-0.044,-1.501,-174.683,-88.989,0.916
-0.134,-0.186,-1.565,-156.311,-53.04,6.47
-0.061,-0.212,-1.676,-128.967,-17.822,21.912
-0.076,-0.178,-1.747,-102.478,20.142,27.283
-0.122,-0.118,-1.821,-76.111,34.058,17.944
-0.093,-0.094,-1.826,-57.861,26.367,8.301
-0.055,-0.138,-1.771,-44.128,2.502,1.221
-0.017,-0.162,-1.691,-28.687,-23.01,-4.7
0.012,-0.166,-1.57,-14.587,-42.603,-8.667
0.029,-0.163,-1.421,-3.967,-54.382,-10.132
0.049,-0.158,-1.281,4.15,-54.565,-11.047
0.067,-0.145,-1.165,8.484,-45.227,-12.329
0.09,-0.138,-1.085,10.986,-33.081,-13.55
0.121,-0.141,-1.026,10.071,-21.362,-14.954
0.138,-0.157,-0.982,8.85,-11.353,-16.113
0.152,-0.165,-0.952,8.362,-2.991,-15.259
0.16,-0.158,-0.942,10.01,2.93,-13.489
0.166,-0.151,-0.934,10.132,5.127,-12.146
0.172,-0.153,-0.925,7.812,2.258,-11.414
0.176,-0.171,-0.913,5.31,-3.235,-10.132
0.173,-0.177,-0.902,4.211,-8.972,-7.324
0.169,-0.154,-0.896,4.578,-11.597,-3.967
0.157,-0.126,-0.894,4.395,-11.292,-1.831
0.145,-0.111,-0.889,2.93,-10.01,-0.427
0.131,-0.108,-0.893,0.427,-7.751,0.977
0.115,-0.09,-0.914,-0.671,-5.188,2.258
0.102,-0.068,-0.937,-1.648,-3.479,3.174
0.087,-0.059,-0.949,-4.028,-3.296,3.54
0.073,-0.061,-0.952,-6.287,-3.54,3.967
0.061,-0.061,-0.966,-8.362,-2.686,4.578
0.048,-0.056,-0.984,-9.949,-1.892,4.944
0.037,-0.051,-1.006,-11.047,-1.404,4.7
0.03,-0.054,-1.026,-11.658,-1.831,3.662
0.029,-0.062,-1.038,-11.414,-3.174,2.075
0.031,-0.073,-1.045,-10.498,-4.7,0.793
0.034,-0.076,-1.048,-8.606,-4.639,0.244
0.039,-0.077,-1.052,-6.653,-3.296,-0.366
0.045,-0.078,-1.057,-4.944,-2.38,-1.221
0.052,-0.094,-1.059,-3.174,-2.258,-2.075
0.064,-0.099,-1.065,0.122,-2.197,-3.296
0.076,-0.1,-1.065,3.174,-2.014,-4.456
0.089,-0.099,-1.056,4.517,-2.258,-4.822
0.106,-0.109,-1.038,4.211,-3.601,-4.883
0.12,-0.121,-1.02,3.235,-5.005,-4.333
0.127,-0.123,-1.005,2.869,-5.92,-3.052
0.132,-0.11,-0.999,2.747,-5.676,-2.319
0.134,-0.102,-0.993,2.136,-5.188,-2.197
0.139,-0.105,-0.981,0.916,-6.226,-2.38
0.14,-0.116,-0.958,-0.244,-7.263,-2.258
0.139,-0.13,-0.947,-0.854,-5.737,-2.014
0.137,-0.124,-0.948,-0.549,-2.93,-1.465
0.136,-0.113,-0.961,-0.61,-0.061,-0.305
0.133,-0.107,-0.976,-1.709,1.831,0.427
0.13,-0.106,-0.985,-3.052,1.526,0.366
0.126,-0.112,-0.995,-4.333,0.488,0.671
0.119,-0.113,-1.005,-4.456,0,1.465
0.108,-0.104,-1.021,-3.296,0.61,2.014
0.098,-0.093,-1.035,-2.136,1.343,1.831
0.089,-0.082,-1.043,-0.854,0.977,0.916
0.086,-0.084,-1.043,-0.61,-0.549,0.305
0.085,-0.092,-1.04,-0.671,-2.136,0.061
0.084,-0.09,-1.039,-0.061,-2.808,0.366
0.085,-0.085,-1.039,1.404,-2.38,0.244
0.084,-0.083,-1.034,2.502,-1.953,-0.122
0.088,-0.085,-1.029,2.502,-1.587,-0.061
-0.193,-1.847,2.267,204.346,-134.949,-155.823
-0.234,-2.203,2.933,151.306,-146.973,-174.316
-0.12,-2.277,3.449,92.529,-138.306,-171.875
0.134,-2.021,3.455,27.1,-104.431,-139.587
0.377,-1.658,2.849,-43.518,-54.382,-83.496
0.491,-1.186,2.048,-111.206,-10.437,-19.226
0.513,-0.74,1.368,-163.391,16.174,42.053
0.477,-0.312,0.764,-189.575,34.973,86.67
0.45,0.099,0.3,-188.477,51.086,109.619
0.441,0.392,0.082,-176.758,58.35,117.249
0.43,0.595,0.095,-163.94,52.124,113.77
0.434,0.702,0.231,-156.738,40.588,105.164
0.43,0.715,0.368,-158.264,31.25,96.924
0.428,0.683,0.467,-164.978,25.269,91.37
0.428,0.633,0.542,-175.293,22.278,89.905
0.421,0.58,0.599,-190.125,19.836,91.003
0.409,0.526,0.629,-211.06,15.198,93.933
0.384,0.469,0.602,-234.07,9.705,98.389
0.346,0.422,0.492,-254.211,5.005,103.577
0.286,0.413,0.322,-264.282,1.709,109.192
0.239,0.452,0.15,-262.268,1.038,112.122
0.16,0.498,0.041,-252.441,0.488,109.375
0.113,0.562,0.001,-243.164,-2.38,100.586
0.099,0.543,0.048,-235.901,-10.986,87.585
0.08,0.552,0.049,-240.417,-18.311,74.402
0.085,0.496,0.063,-249.756,-24.17,64.697
0.107,0.409,0.07,-262.573,-28.564,58.472
0.152,0.369,0.029,-283.813,-28.503,62.5
0.148,0.319,-0.064,-303.223,-24.841,71.96
0.074,0.278,-0.269,-308.838,-11.292,81.543
0.029,0.315,-0.511,-292.053,14.465,88.989
0.003,0.408,-0.705,-261.597,39.429,87.036
-0.034,0.49,-0.797,-231.262,48.401,78.674
-0.035,0.516,-0.811,-212.646,42.053,66.772
0.004,0.447,-0.799,-208.435,27.344,53.711
0.027,0.44,-0.773,-214.05,4.822,47.241
0.029,0.457,-0.747,-225.708,-18.311,45.654
0.067,0.439,-0.721,-242.798,-32.532,47.852
0.096,0.386,-0.731,-260.62,-28.992,52.124
0.069,0.355,-0.821,-274.719,-10.132,61.34
0.012,0.367,-0.945,-280.884,14.771,73.975
-0.032,0.389,-1.072,-274.353,34.18,79.285
-0.076,0.415,-1.166,-258.179,41.26,73.486
-0.093,0.428,-1.207,-241.333,35.339,63.232
-0.097,0.405,-1.173,-230.713,19.409,49.927
-0.08,0.382,-1.148,-223.694,-0.793,36.499
-0.055,0.329,-1.126,-220.764,-19.409,26.306
-0.032,0.298,-1.102,-229.065,-33.875,21.729
0,0.258,-1.115,-241.76,-42.175,20.508
0.06,0.16,-1.21,-257.263,-44.067,22.217
0.047,0.083,-1.308,-268.799,-38.147,34.485
0.01,0.1,-1.44,-272.949,-15.259,57.495
-0.072,0.155,-1.582,-264.587,14.465,75.439
-0.151,0.236,-1.753,-247.681,33.264,80.75
-0.2,0.275,-1.886,-229.309,36.194,74.097
-0.22,0.287,-1.939,-212.158,22.461,59.387
-0.208,0.271,-1.957,-193.726,-2.869,45.532
-0.19,0.219,-1.918,-176.147,-33.386,34.18
-0.146,0.204,-1.833,-159.851,-60.059,26.245
-0.122,0.173,-1.738,-148.804,-79.163,20.325
-0.094,0.148,-1.616,-140.259,-90.393,14.954
-0.05,0.078,-1.504,-132.324,-91.98,10.315
-0.026,-0.008,-1.381,-127.563,-81.36,9.705
0,-0.079,-1.318,-119.69,-58.044,13.184
0.005,-0.098,-1.283,-97.046,-29.785,17.395
0.007,-0.086,-1.281,-71.289,-5.432,17.7
0.016,-0.097,-1.294,-53.406,12.878,14.099
0.014,-0.117,-1.305,-43.457,24.841,10.681
0.009,-0.127,-1.31,-37.292,26.001,7.385
0.016,-0.136,-1.298,-29.114,20.142,3.235
0.029,-0.134,-1.251,-22.217,12.634,-0.061
0.034,-0.134,-1.215,-16.296,4.333,-0.732
0.041,-0.143,-1.174,-12.573,-2.38,-0.122
0.037,-0.146,-1.13,-9.521,-5.066,0.671
0.04,-0.135,-1.102,-6.714,-5.127,0.977
0.042,-0.12,-1.075,-4.028,-4.578,-0.183
0.044,-0.115,-1.055,-3.235,-4.089,-1.953
0.051,-0.113,-1.036,-3.906,-3.723,-3.235
0.062,-0.109,-1.022,-4.883,-3.052,-4.15
0.066,-0.105,-1.008,-5.188,-2.38,-5.493
0.071,-0.1,-1.001,-4.517,-1.77,-6.958
0.077,-0.101,-0.998,-2.93,-1.587,-8.606
0.087,-0.096,-0.988,-0.854,-2.075,-10.01
0.095,-0.088,-0.983,0.183,-3.052,-11.353
0.106,-0.085,-0.976,0.183,-5.188,-12.024
0.119,-0.09,-0.964,-0.61,-7.568,-12.207
0.131,-0.097,-0.953,-1.404,-9.216,-11.902
0.135,-0.098,-0.949,-1.404,-8.789,-10.742
0.131,-0.088,-0.949,-2.869,-6.897,-8.789
0.123,-0.082,-0.957,-4.395,-5.493,-6.836
0.118,-0.082,-0.964,-5.493,-5.432,-5.31
0.11,-0.089,-0.97,-6.226,-6.531,-3.784
0.101,-0.086,-0.98,-6.226,-6.836,-2.319
0.089,-0.078,-0.992,-7.08,-6.165,-1.587
0.077,-0.076,-0.999,-9.155,-5.371,-1.221
0.072,-0.092,-1.006,-10.742,-5.615,-1.221
0.069,-0.096,-1.014,-9.766,-5.981,-1.526
0.068,-0.092,-1.033,-7.385,-5.676,-1.587
0.065,-0.086,-1.05,-5.737,-4.7,-1.587
0.064,-0.083,-1.056,-5.615,-6.165,-1.831
0.069,-0.091,-1.043,-4.517,-9.094,-3.296
0.077,-0.102,-1.024,-1.648,-9.216,-5.249
0.082,-0.104,-1.02,0.122,-4.883,-5.371
0.083,-0.101,-1.027,0.977,0.549,-5.127
0.08,-0.096,-1.041,1.16,3.54,-4.578
0.081,-0.097,-1.052,0.671,2.747,-4.272
0.091,-0.111,-1.047,1.038,-0.427,-4.333
0.103,-0.121,-1.029,2.686,-2.197,-4.211
0.105,-0.113,-1.017,3.54,-2.014,-3.418
0.1,-0.1,-1.011,3.113,-0.793,-2.319
0.095,-0.092,-1.012,2.136,-0.793,-1.77
0.093,-0.092,-1.021,0.366,-1.892,-1.953
0.095,-0.094,-1.025,-0.244,-4.089,-2.319
0.105,-0.105,-1.023,1.892,-6.897,-2.563
0.106,-0.1,-1.012,5.615,-7.019,-2.258
0.099,-0.089,-1.007,7.935,-3.052,-2.197
0.085,-0.077,-1.014,8.545,0.061,-2.136
0.077,-0.069,-1.024,7.019,0.244,-2.197
0.075,-0.07,-1.031,5.188,-1.77,-2.686
0.073,-0.904,2.057,104.37,-49.5,-59.753
0.135,-0.952,2.228,70.74,-40.344,-61.218
0.224,-0.908,2.268,31.799,-26.611,-52.551
0.32,-0.761,2.131,-9.827,-12.329,-34.973
0.373,-0.599,1.86,-53.711,-0.549,-12.024
0.394,-0.444,1.565,-95.093,7.019,12.512
0.392,-0.274,1.283,-126.343,10.681,34.973
0.364,-0.132,1.048,-146.301,14.587,51.758
0.338,-0.023,0.892,-158.02,20.02,62.256
0.305,0.053,0.814,-163.513,24.536,68.176
0.302,0.113,0.802,-168.64,27.405,72.754
0.293,0.148,0.832,-177.002,28.992,76.904
0.285,0.169,0.856,-189.636,30.151,82.031
0.262,0.178,0.821,-209.839,31.738,88.013
0.264,0.152,0.792,-230.103,27.588,94.788
0.247,0.154,0.701,-249.329,26.306,101.257
0.223,0.169,0.572,-266.235,28.381,105.469
0.203,0.174,0.432,-275.391,33.325,109.863
0.181,0.192,0.289,-278.259,40.771,113.586
0.143,0.228,0.162,-274.841,47.18,116.15
0.12,0.276,0.062,-268.066,51.88,116.455
0.089,0.311,-0.005,-262.39,54.443,114.746
0.079,0.341,-0.057,-261.108,55.176,110.962
0.094,0.353,-0.108,-266.846,52.49,106.628
0.111,0.362,-0.171,-281.921,44.678,104.309
0.126,0.355,-0.252,-305.115,34.302,104.553
0.144,0.324,-0.366,-333.374,26.733,107.544
0.128,0.273,-0.521,-360.229,24.658,115.479
0.09,0.209,-0.721,-373.108,29.236,126.587
0.049,0.218,-0.908,-361.755,41.382,136.108
-0.017,0.288,-1.053,-333.923,61.768,139.282
-0.095,0.358,-1.099,-307.068,81.604,135.986
-0.151,0.413,-1.149,-282.043,89.783,127.258
-0.175,0.439,-1.13,-259.155,79.224,113.342
-0.197,0.442,-1.111,-251.221,54.199,95.459
-0.171,0.404,-1.071,-253.479,21.057,76.538
-0.128,0.33,-1.033,-254.822,-14.954,59.448
-0.081,0.264,-1.003,-263.184,-44.189,48.828
-0.084,0.237,-0.948,-281.677,-58.594,44.8
-0.048,0.154,-0.957,-293.457,-58.777,41.748
-0.093,0.117,-0.982,-307.617,-46.448,41.138
-0.089,0.098,-1.025,-317.932,-31.677,48.157
-0.081,0.026,-1.136,-319.031,-17.151,53.101
-0.089,-0.021,-1.255,-303.406,-10.498,55.176
-0.097,0.004,-1.346,-275.085,-5.31,54.81
-0.129,0.095,-1.411,-249.329,-3.052,50.964
-0.152,0.135,-1.454,-234.131,-9.766,45.837
-0.162,0.116,-1.487,-225.586,-24.597,39.368
-0.17,0.048,-1.53,-225.83,-40.649,31.738
-0.175,-0.005,-1.591,-237.549,-50.476,25.94
0.169,0.013,-1.592,-254.089,-52.246,21.057
-0.264,-0.366,-1.863,-264.893,-46.021,10.132
-0.139,-0.074,-1.877,-261.169,-29.541,5.859
-0.039,-0.281,-2.026,-233.643,-18.188,45.532
-0.155,-0.196,-2.146,-186.218,4.639,60.73
-0.241,-0.022,-2.163,-152.344,10.864,55.054
-0.287,0.07,-2.124,-118.958,-1.282,46.143
-0.265,0.092,-2.044,-90.088,-22.4,32.532
-0.235,0.017,-1.948,-69.336,-45.471,16.785
-0.182,-0.05,-1.827,-48.523,-61.035,5.859
-0.124,-0.09,-1.705,-31.555,-66.04,0.366
-0.09,-0.112,-1.591,-21.423,-59.998,-1.099
-0.059,-0.132,-1.494,-13.428,-45.166,-0.366
-0.043,-0.148,-1.411,-6.592,-26.062,1.892
-0.027,-0.143,-1.349,-1.831,-7.568,2.747
-0.01,-0.144,-1.307,4.15,5.005,0
0.005,-0.14,-1.265,10.803,10.864,-4.333
0.024,-0.129,-1.227,16.907,11.047,-8.362
0.052,-0.12,-1.177,22.156,6.226,-11.719
0.073,-0.126,-1.116,27.283,-1.953,-14.404
0.092,-0.132,-1.055,31.189,-9.521,-16.663
0.108,-0.135,-0.996,33.02,-15.076,-18.25
0.124,-0.137,-0.947,32.41,-17.639,-18.433
0.136,-0.132,-0.905,29.602,-18.005,-16.846
0.146,-0.118,-0.888,25.574,-17.09,-14.465
0.142,-0.112,-0.861,20.935,-15.32,-11.963
0.133,-0.11,-0.853,17.517,-11.292,-9.399
0.124,-0.096,-0.866,13.733,-4.578,-6.836
0.111,-0.077,-0.885,9.705,1.099,-4.578
0.098,-0.061,-0.911,6.714,3.723,-3.479
0.091,-0.062,-0.931,6.958,1.953,-3.174
0.09,-0.056,-0.944,11.292,-1.16,-2.93
0.084,-0.041,-0.944,13.855,-2.319,-2.38
0.071,-0.03,-0.939,14.221,-3.113,-1.648
0.054,-0.018,-0.934,13.306,-5.31,-1.038
0.046,-0.013,-0.941,10.681,-8.728,-0.732
0.058,-0.033,-0.943,7.996,-13.977,-1.221
0.059,-0.049,-0.932,7.202,-18.555,-0.793
0.051,-0.039,-0.926,5.798,-16.479,1.587
0.039,-0.017,-0.932,3.296,-8.728,3.906
0.024,-0.002,-0.949,0.244,-1.038,4.639
0.018,0.005,-0.976,-2.991,3.662,3.906
0.019,-0.001,-1.004,-5.127,4.517,1.953
0.034,-0.017,-1.03,-3.601,1.16,-0.427
0.045,-0.022,-1.039,0.854,-2.625,-1.953
0.052,-0.015,-1.034,3.784,-3.601,-2.441
0.053,-0.003,-1.033,4.395,-3.845,-2.869
0.053,-0.002,-1.034,3.235,-5.615,-3.296
0.059,-0.014,-1.031,0.977,-9.216,-4.517
0.076,-0.027,-1.022,0.244,-12.939,-5.981
0.087,-0.038,-1.008,0.183,-13.489,-6.714
0.091,-0.039,-1.002,-0.061,-10.071,-5.859
0.097,-0.034,-1,-0.549,-5.737,-4.211
0.097,-0.03,-1.001,-1.16,-3.296,-3.967
0.104,-0.044,-1.002,-2.075,-2.38,-4.456
0.113,-0.059,-1.003,-1.526,-2.319,-3.479
0.115,-0.048,-1.006,0.427,-1.831,-2.075
0.111,-0.032,-1.009,1.038,-0.61,-1.282
0.105,-0.027,-1.007,0.732,-0.854,-0.977
0.103,-0.031,-1.005,-0.244,-2.075,-1.221
0.101,-0.038,-1.002,-1.587,-2.563,-1.465
0.097,-0.04,-1.008,-2.502,-2.441,-1.038
0.093,-0.031,-1.017,-2.38,-2.319,-0.549
0.087,-0.023,-1.025,-2.38,-2.319,-0.61
0.084,-0.021,-1.03,-2.502,-3.418,-0.977
0.086,-0.028,-1.033,-2.686,-5.554,-1.404
0.085,-0.032,-1.036,-1.587,-7.568,-1.465
0.086,-0.027,-1.038,1.099,-8.423,-1.648
0.087,-0.025,-1.034,3.174,-8.606,-1.892
-0.164,0.367,-1.987,273.254,51.331,-59.509
-0.193,0.399,-1.917,285.522,33.142,-68.115
-0.202,0.448,-1.861,297.913,12.695,-77.148
-0.221,0.465,-1.794,307.678,-4.822,-86.06
-0.212,0.469,-1.744,320.557,-14.893,-95.032
-0.202,0.445,-1.69,333.435,-17.822,-102.6
-0.153,0.438,-1.618,348.083,-20.752,-105.469
-0.138,0.478,-1.513,362.366,-24.902,-106.934
-0.117,0.51,-1.43,367.493,-26.489,-105.53
-0.092,0.524,-1.336,367.187,-27.588,-102.051
-0.064,0.563,-1.23,365.479,-30.945,-99.06
-0.066,0.605,-1.105,364.99,-30.64,-97.534
-0.065,0.607,-1.021,360.962,-20.081,-96.375
-0.04,0.579,-0.956,357.361,-4.333,-98.267
-0.023,0.505,-0.916,354.065,6.104,-100.769
-0.016,0.411,-0.859,354.858,7.812,-99.915
0.021,0.351,-0.759,357.178,3.906,-97.778
0.03,0.302,-0.63,354.309,-4.15,-97.961
0.04,0.243,-0.54,348.938,-11.536,-99.915
0.085,0.186,-0.493,341.614,-15.076,-101.257
0.092,0.166,-0.447,331.238,-22.095,-100.281
0.057,0.134,-0.381,323.242,-33.691,-100.464
0.07,0.054,-0.293,319.519,-42.175,-105.164
0.137,-0.057,-0.171,318.604,-46.265,-112.488
0.198,-0.126,-0.026,317.139,-48.828,-113.953
0.265,-0.208,0.146,311.707,-47.668,-108.582
0.322,-0.277,0.278,301.27,-41.504,-99.915
0.375,-0.379,0.377,290.405,-35.522,-88.562
0.411,-0.481,0.499,282.288,-30.884,-75.073
0.45,-0.575,0.658,276.855,-23.987,-61.89
0.475,-0.677,0.867,269.348,-17.151,-49.744
0.451,-0.781,1.1,254.211,-11.963,-37.537
0.392,-0.89,1.344,231.812,-8.667,-29.236
0.307,-1.007,1.593,202.026,-9.949,-28.442
0.207,-1.095,1.828,165.955,-14.954,-34.18
0.173,-1.132,2.037,124.084,-23.254,-43.701
0.209,-1.091,2.148,76.965,-31.677,-52.795
0.272,-0.972,2.123,26.978,-36.926,-56.152
0.366,-0.807,1.917,-22.705,-36.621,-51.636
0.461,-0.638,1.635,-67.688,-33.508,-39.795
0.533,-0.444,1.375,-102.722,-30.579,-23.682
0.589,-0.245,1.143,-126.831,-26.001,-5.432
0.603,-0.054,0.936,-142.273,-19.409,12.634
0.591,0.11,0.754,-151.367,-11.23,29.907
0.558,0.227,0.637,-154.297,-4.395,44.128
0.522,0.321,0.607,-154.785,0.183,53.711
0.487,0.38,0.606,-155.884,1.831,58.655
0.45,0.395,0.635,-160.156,-1.465,59.082
0.414,0.397,0.663,-167.969,-6.531,57.007
0.412,0.394,0.664,-177.429,-10.864,54.138
0.429,0.388,0.644,-191.345,-15.076,52.795
0.456,0.374,0.577,-205.872,-18.982,57.007
0.444,0.371,0.51,-216.187,-22.949,61.951
0.398,0.397,0.432,-223.999,-22.217,64.88
0.393,0.389,0.4,-223.999,-18.311,67.688
0.361,0.385,0.365,-224.731,-11.353,69.824
0.343,0.383,0.326,-229.065,-6.042,75.012
0.313,0.387,0.288,-232.239,-2.686,83.679
0.306,0.391,0.252,-235.413,4.639,90.942
0.295,0.393,0.197,-242.187,12.451,97.229
0.269,0.412,0.131,-252.075,18.494,105.591
0.255,0.406,0.048,-262.573,25.085,113.77
0.217,0.42,-0.048,-270.203,31.738,119.568
0.171,0.448,-0.176,-272.095,37.842,124.512
0.135,0.452,-0.255,-274.841,44.495,127.563
0.099,0.461,-0.401,-272.278,50.476,128.174
0.026,0.501,-0.528,-261.658,52.612,128.052
-0.04,0.572,-0.626,-243.652,54.138,124.146
-0.076,0.611,-0.645,-226.196,54.016,113.159
-0.099,0.615,-0.608,-213.928,47.729,97.168
-0.084,0.55,-0.595,-207.397,33.752,79.651
-0.068,0.511,-0.586,-213.684,13.611,67.505
-0.056,0.474,-0.593,-228.577,-9.644,64.209
-0.048,0.45,-0.597,-249.756,-26.428,65.735
-0.044,0.408,-0.603,-270.935,-32.593,67.871
-0.059,0.35,-0.647,-289.246,-26.672,70.374
-0.083,0.291,-0.757,-298.584,-10.254,76.904
-0.129,0.265,-0.911,-294.312,8.301,86.304
-0.177,0.312,-1.015,-276.672,23.682,93.14
-0.212,0.377,-1.057,-253.357,32.349,90.576
-0.23,0.4,-1.073,-228.027,28.198,78.125
-0.235,0.382,-1.036,-211.731,10.315,62.378
-0.203,0.338,-0.996,-204.041,-15.686,47.302
-0.142,0.243,-0.97,-205.811,-45.166,35.034
-0.101,0.138,-0.982,-221.069,-66.406,30.09
-0.067,0.066,-1.092,-250.305,-66.528,36.987
-0.07,0.002,-1.268,-279.053,-48.035,54.077
-0.115,-0.022,-1.451,-291.199,-20.691,77.393
-0.204,0.062,-1.637,-280.334,9.705,95.581
-0.306,0.205,-1.837,-251.709,33.752,102.356
-0.366,0.346,-1.946,-222.412,39.429,97.412
-0.427,0.421,-2.008,-197.205,23.193,82.153
-0.459,0.454,-1.985,-174.744,-9.277,62.439
-0.434,0.253,-1.975,-156.311,-47.729,39.734
-0.394,0.413,-1.74,-139.465,-74.097,15.869
-0.231,0.357,-1.668,-127.808,-101.685,4.395
-0.205,0.169,-1.585,-107.849,-103.76,3.418
-0.231,0.141,-1.474,-93.689,-85.022,7.751
-0.217,0.176,-1.384,-85.266,-66.589,17.7
-0.216,0.144,-1.322,-81.604,-45.532,19.409
-0.206,0.067,-1.344,-76.904,-24.78,13.855
-0.159,0.023,-1.413,-72.693,-9.033,10.071
-0.13,-0.001,-1.481,-67.688,2.563,12.939
-0.113,0.016,-1.529,-60.059,11.353,17.7
-0.118,0.056,-1.549,-47.729,13.55,18.555
-0.123,0.09,-1.532,-32.654,9.949,14.771
-0.108,0.105,-1.491,-17.273,4.333,8.423
-0.081,0.101,-1.432,-5.615,-2.747,0.977
-0.054,0.086,-1.357,2.38,-9.644,-6.653
-0.033,0.073,-1.276,8.545,-15.564,-13.184
-0.009,0.073,-1.21,12.817,-18.982,-17.883
0.01,0.068,-1.14,14.099,-18.982,-21.606
0.033,0.058,-1.088,14.038,-16.602,-24.048
0.048,0.047,-1.036,15.564,-12.207,-25.818
0.061,0.045,-0.997,18.25,-5.188,-25.94
0.066,0.046,-0.974,18.799,1.221,-24.902
0.076,0.051,-0.963,17.578,5.859,-24.17
0.08,0.033,-0.943,16.602,7.08,-24.292
0.089,0.02,-0.923,15.564,5.005,-24.109
0.393,-0.997,1.739,121.216,-54.199,-81.726
0.39,-1.097,1.946,87.28,-57.983,-80.994
0.418,-1.125,2.07,49.255,-55.359,-75.867
0.454,-1.047,2.073,8.972,-49.438,-63.293
0.49,-0.867,1.916,-30.273,-41.321,-42.969
0.494,-0.65,1.671,-69.153,-32.043,-17.883
0.457,-0.429,1.396,-102.661,-22.766,6.226
0.409,-0.195,1.127,-126.831,-16.602,26.978
0.348,0.008,0.9,-141.418,-13.306,41.565
0.281,0.163,0.764,-150.33,-12.573,49.072
0.234,0.275,0.728,-156.128,-14.587,49.866
0.213,0.341,0.725,-163.452,-19.47,46.082
0.205,0.362,0.734,-174.072,-26.062,40.039
0.219,0.347,0.742,-186.829,-30.579,35.034
0.244,0.332,0.745,-200.317,-32.043,34.119
0.265,0.308,0.749,-216.37,-32.654,37.537
0.265,0.278,0.711,-233.459,-31.86,45.471
0.225,0.27,0.611,-245.239,-27.222,56.274
0.176,0.299,0.489,-246.399,-17.09,66.956
0.147,0.338,0.383,-240.845,-4.211,74.89
0.12,0.375,0.316,-231.14,9.766,80.078
0.081,0.426,0.246,-226.685,23.499,81.238
0.067,0.415,0.231,-224.426,29.358,81.726
0.051,0.427,0.185,-229.309,26.123,80.444
0.06,0.44,0.136,-245.728,15.503,75.5
0.065,0.453,0.058,-262.878,4.15,74.097
0.064,0.471,-0.041,-277.405,0.671,75.989
0.059,0.483,-0.151,-283.264,9.155,77.148
0.043,0.495,-0.254,-281.799,24.658,77.637
0.015,0.494,-0.358,-272.644,40.955,79.285
0.004,0.477,-0.453,-256.348,56.641,82.092
0.001,0.443,-0.531,-239.502,69.519,84.045
-0.015,0.481,-0.57,-231.018,69.031,88.806
-0.049,0.525,-0.588,-231.628,53.345,94.177
-0.078,0.53,-0.615,-242.92,34.302,95.581
-0.099,0.538,-0.656,-255.737,17.578,93.018
-0.109,0.533,-0.726,-264.038,6.165,86.548
-0.129,0.516,-0.827,-264.465,-0.183,80.566
-0.13,0.511,-0.922,-256.897,0.488,75.012
-0.147,0.507,-0.974,-244.812,7.263,68.42
-0.161,0.504,-1.041,-229.675,15.381,61.035
-0.172,0.467,-1.005,-221.741,17.7,52.429
-0.136,0.411,-1.014,-212.341,11.536,45.959
-0.098,0.365,-1.037,-208.13,-2.625,43.396
-0.094,0.382,-1.092,-212.158,-19.653,48.035
-0.097,0.426,-1.148,-221.558,-28.687,56.335
-0.121,0.45,-1.202,-228.394,-24.231,63.66
-0.158,0.484,-1.261,-228.638,-12.512,67.871
-0.179,0.522,-1.303,-221.802,-2.197,67.81
-0.206,0.549,-1.335,-212.524,1.16,63.904
-0.224,0.574,-1.311,-202.148,-2.686,56.641
-0.216,0.564,-1.29,-189.758,-12.024,46.265
-0.203,0.548,-1.237,-179.26,-26.367,34.668
-0.162,0.453,-1.232,-168.457,-40.466,24.475
-0.151,0.43,-1.196,-162.537,-48.706,19.409
-0.12,0.379,-1.171,-161.804,-56.519,22.095
-0.116,0.312,-1.203,-164.673,-56.824,26.489
-0.068,0.28,-1.198,-170.105,-54.26,31.128
0.01,0.279,-1.25,-168.945,-47.791,32.166
-0.172,0.06,-1.424,-166.565,-39.001,36.011
-0.125,0.293,-1.312,-162.903,-28.32,37.598
-0.086,0.289,-1.37,-149.902,-27.832,43.64
-0.146,0.215,-1.465,-121.643,-16.479,40.771
-0.182,0.252,-1.494,-109.314,-11.414,26.55
-0.16,0.277,-1.532,-104.736,-17.822,23.987
-0.19,0.218,-1.55,-103.516,-21.545,21.362
-0.171,0.176,-1.583,-97.595,-24.231,17.578
-0.16,0.146,-1.619,-89.111,-25.024,15.503
-0.148,0.128,-1.651,-85.205,-20.752,17.029
-0.132,0.129,-1.68,-80.627,-12.878,18.738
-0.131,0.136,-1.703,-71.106,-4.517,18.25
-0.135,0.15,-1.71,-56.763,1.77,17.09
-0.131,0.158,-1.698,-39.673,5.798,13.062
-0.125,0.171,-1.655,-21.24,5.188,5.554
-0.115,0.171,-1.583,-5.249,1.16,-3.113
-0.092,0.149,-1.488,7.202,-5.31,-11.841
-0.066,0.112,-1.379,17.151,-12.756,-19.165
-0.035,0.087,-1.274,23.56,-18.799,-23.682
-0.016,0.068,-1.177,27.344,-21.973,-25.818
-0.003,0.057,-1.08,28.992,-21.973,-26.428
0.02,0.046,-1.001,28.564,-18.188,-26.367
0.03,0.027,-0.942,28.931,-12.329,-25.269
0.044,0.025,-0.902,29.114,-5.31,-22.156
0.046,0.034,-0.864,27.71,0.671,-18.555
0.042,0.055,-0.845,25.146,3.906,-15.808
0.043,0.059,-0.823,21.545,3.54,-14.16
0.052,0.049,-0.807,19.592,0.732,-12.817
0.051,0.062,-0.793,18.433,-2.014,-10.986
0.04,0.089,-0.78,15.747,-4.15,-8.606
0.033,0.111,-0.766,11.414,-6.958,-6.897
0.034,0.116,-0.76,6.836,-9.705,-6.348
0.038,0.092,-0.755,3.662,-11.475,-5.737
0.04,0.084,-0.767,2.258,-9.888,-3.296
0.034,0.105,-0.795,0.488,-5.066,-0.61
0.017,0.123,-0.835,-2.441,-0.549,1.831
0.008,0.133,-0.884,-6.104,1.465,3.357
0.005,0.131,-0.924,-10.254,0.305,4.15
-0.002,0.116,-0.956,-13.367,-1.16,5.127
-0.009,0.11,-0.991,-13.672,-0.427,6.897
-0.021,0.124,-1.028,-11.353,1.831,7.629
-0.036,0.147,-1.061,-8.362,3.601,6.653
-0.045,0.158,-1.089,-6.653,2.686,4.761
-0.047,0.153,-1.106,-6.104,-0.793,2.93
-0.044,0.143,-1.116,-4.333,-3.906,0.671
-0.041,0.143,-1.121,-1.465,-5.859,-1.099
-0.038,0.151,-1.122,0.977,-6.531,-1.77
-0.033,0.158,-1.114,2.197,-6.836,-2.197
-0.026,0.154,-1.106,2.441,-7.874,-3.052
-0.013,0.148,-1.095,2.441,-9.216,-4.15
-0.005,0.138,-1.078,2.869,-10.376,-5.005
0.003,0.137,-1.057,4.089,-9.888,-5.432
0.009,0.142,-1.042,5.249,-8.484,-6.042
0.016,0.139,-1.021,5.92,-7.385,-6.47
0.021,0.132,-1.003,5.737,-6.714,-6.836
0.029,0.124,-0.991,5.31,-5.493,-6.653
0.033,0.113,-0.985,6.409,-4.456,-6.47
0.035,0.121,-0.984,8.667,-2.93,-6.165
0.033,0.134,-0.985,10.071,-2.136,-5.554
0.034,0.138,-0.982,9.46,-2.258,-4.639
-0.185,0.509,-1.755,260.437,47.668,-56.091
-0.175,0.536,-1.663,267.761,34.18,-65.308
-0.167,0.515,-1.563,271.729,21.79,-72.876
-0.149,0.516,-1.485,279.846,13.489,-80.75
-0.123,0.538,-1.426,289.612,9.216,-89.233
-0.092,0.547,-1.364,298.096,6.47,-97.168
-0.056,0.542,-1.322,303.955,4.028,-104.37
-0.022,0.524,-1.268,308.594,-0.671,-108.704
-0.003,0.536,-1.201,310.608,-8.362,-110.291
0.006,0.573,-1.125,309.753,-20.203,-111.389
0.026,0.568,-1.048,306.641,-34.363,-113.708
0.056,0.597,-0.986,307.068,-44.983,-114.807
0.085,0.625,-0.95,305.603,-42.603,-113.647
0.109,0.61,-0.922,304.016,-30.396,-111.694
0.129,0.601,-0.887,305.42,-17.883,-108.643
0.14,0.603,-0.856,310.425,-12.512,-105.225
0.156,0.588,-0.8,317.932,-11.353,-101.929
0.177,0.547,-0.71,321.472,-9.521,-97.839
0.189,0.536,-0.643,319.092,-7.446,-91.064
0.21,0.522,-0.593,315.186,-5.981,-83.008
0.172,0.523,-0.56,308.96,-3.723,-72.876
0.14,0.511,-0.553,307.739,-1.404,-64.331
0.113,0.518,-0.543,311.523,2.319,-60.73
0.1,0.508,-0.535,313.11,4.822,-60.364
0.053,0.492,-0.51,314.697,3.296,-61.768
0.027,0.434,-0.462,321.533,1.892,-67.261
0.042,0.38,-0.367,327.698,1.587,-74.097
0.063,0.283,-0.241,327.393,-0.366,-79.529
0.069,0.185,-0.107,322.876,-4.944,-83.252
0.076,0.097,0.038,315.613,-13.123,-85.999
0.104,-0.007,0.17,303.772,-23.376,-89.722
0.131,-0.104,0.302,287.415,-36.011,-94.238
0.135,-0.265,0.426,268.677,-50.354,-98.633
0.131,-0.484,0.594,251.099,-60.913,-103.882
0.141,-0.756,0.857,233.948,-68.909,-111.145
0.085,-1.094,1.23,212.524,-77.759,-116.882
-0.008,-1.493,1.693,184.814,-83.313,-119.812
-0.103,-1.839,2.192,151.855,-79.224,-121.887
-0.085,-2.001,2.624,111.145,-65.125,-120.239
0.026,-1.949,2.892,59.875,-47.668,-105.896
0.2,-1.644,2.766,3.784,-29.907,-77.393
0.341,-1.265,2.234,-51.88,-10.742,-41.077
0.402,-0.876,1.621,-102.783,2.686,-5.005
0.438,-0.479,1.118,-138.428,9.583,26.978
0.455,-0.105,0.728,-156.25,15.625,49.255
0.464,0.195,0.448,-158.569,20.935,61.768
0.46,0.401,0.316,-153.442,23.193,68.481
0.443,0.547,0.33,-144.47,21.667,70.801
0.412,0.63,0.418,-136.353,18.738,70.129
0.375,0.66,0.512,-132.812,16.296,67.444
0.341,0.662,0.577,-134.521,15.503,62.317
0.316,0.637,0.612,-139.221,14.404,56.641
0.325,0.572,0.633,-147.156,11.292,52.368
0.328,0.523,0.665,-157.166,5.859,49.683
0.339,0.506,0.685,-167.114,1.099,50.659
0.331,0.493,0.651,-179.443,-0.488,54.26
0.315,0.471,0.601,-193.237,1.282,60.425
0.266,0.43,0.496,-196.899,2.93,67.2
0.226,0.45,0.428,-199.158,6.958,67.871
0.209,0.452,0.398,-201.172,10.559,71.289
0.202,0.464,0.393,-205.2,13.062,74.829
0.185,0.469,0.383,-212.708,16.174,77.576
0.18,0.462,0.359,-224.182,20.203,79.895
0.188,0.451,0.327,-241.272,22.583,83.252
0.173,0.459,0.264,-258.423,23.01,88.44
0.146,0.462,0.157,-271.851,22.766,95.093
0.112,0.452,0.029,-281.738,24.536,101.563
0.076,0.462,-0.118,-285.095,27.588,105.652
0.044,0.477,-0.208,-286.377,32.288,104.614
0.026,0.495,-0.282,-279.175,39.063,98.938
0.018,0.498,-0.349,-258.179,43.884,90.942
-0.014,0.517,-0.409,-238.647,46.326,84.839
-0.024,0.584,-0.451,-224.304,47.668,80.688
-0.003,0.591,-0.516,-216.919,47.974,73.059
0.006,0.6,-0.567,-222.351,41.565,69.031
0.001,0.604,-0.648,-232.239,32.349,71.838
-0.016,0.605,-0.719,-244.507,25.391,77.087
-0.035,0.63,-0.806,-248.779,18.25,80.139
-0.068,0.638,-0.872,-243.469,9.949,78.491
-0.103,0.669,-0.896,-235.413,5.188,72.937
-0.131,0.676,-0.942,-225.769,5.31,62.378
-0.123,0.655,-0.907,-220.215,3.54,49.133
-0.095,0.604,-0.915,-209.961,-1.343,38.086
-0.081,0.563,-0.931,-203.186,-9.155,32.959
-0.049,0.537,-0.9,-204.346,-17.456,32.41
-0.025,0.517,-0.906,-204.224,-26.611,33.813
0.001,0.505,-0.887,-207.764,-33.02,37.048
0.007,0.462,-0.945,-216.492,-29.724,44.373
0.002,0.449,-0.96,-234.924,-18.433,55.603
-0.033,0.443,-1.004,-244.934,-2.502,66.406
-0.086,0.455,-1.045,-245.117,11.292,72.449
-0.147,0.474,-1.106,-244.995,20.142,73.425
-0.156,0.455,-1.185,-242.126,21.912,66.223
-0.207,0.425,-1.311,-229.797,19.409,54.321
-0.196,0.417,-1.347,-206.787,13,41.87
-0.178,0.428,-1.356,-187.866,-0.671,29.236
-0.147,0.395,-1.273,-173.584,-17.761,17.822
-0.111,0.302,-1.274,-157.715,-30.823,9.949
-0.076,0.227,-1.283,-149.292,-39.001,9.766
-0.042,0.189,-1.295,-148.437,-43.457,16.418
-0.053,0.184,-1.327,-144.287,-40.222,24.78
-0.044,0.186,-1.346,-137.695,-31.372,33.142
-0.088,0.181,-1.394,-131.714,-18.311,33.142
-0.201,0.28,-1.4,-122.375,-6.531,26.917
-0.114,0.23,-1.416,-113.77,6.775,33.508
-0.14,0.182,-1.48,-108.032,19.226,28.809
-0.162,0.171,-1.5,-95.581,17.273,21.057
-0.162,0.194,-1.495,-80.444,7.202,16.785
-0.164,0.192,-1.446,-67.566,-7.08,11.23
-0.157,0.155,-1.381,-58.289,-23.499,3.174
-0.139,0.096,-1.328,-53.955,-36.072,-4.7
-0.094,0.032,-1.29,-51.514,-42.664,-8.728
-0.08,0.002,-1.28,-49.438,-39.124,-6.348
-0.064,0.015,-1.288,-48.401,-28.992,-1.221
-0.07,0.012,-1.299,-45.532,-14.587,2.808
-0.077,0.015,-1.336,-36.011,2.197,6.531
-0.087,0.044,-1.372,-24.841,16.846,7.019
-0.099,0.086,-1.399,-13,23.865,4.333
-0.096,0.104,-1.4,-2.014,23.926,-0.366
-0.151,0.244,-2.337,232.605,56.885,-47.913
-0.159,0.381,-2.331,266.296,63.599,-52.368
-0.163,0.415,-2.25,295.776,55.176,-59.753
-0.158,0.433,-2.127,313.416,40.161,-68.298
-0.145,0.493,-2.028,316.772,25.696,-72.632
-0.141,0.543,-1.962,318.665,12.634,-74.951
-0.145,0.543,-1.891,324.402,5.005,-81.482
-0.122,0.525,-1.883,335.205,3.601,-89.844
-0.1,0.495,-1.86,348.816,4.639,-96.252
-0.099,0.501,-1.818,364.685,4.517,-98.694
-0.105,0.534,-1.739,380.859,-0.61,-101.807
-0.119,0.559,-1.598,392.639,-8.789,-106.873
-0.109,0.557,-1.447,399.475,-14.099,-112.305
-0.065,0.527,-1.304,403.809,-11.719,-117.004
-0.056,0.504,-1.184,402.466,-0.122,-115.601
-0.062,0.486,-1.088,399.78,13.245,-111.572
-0.07,0.427,-0.947,398.987,19.226,-113.22
-0.063,0.358,-0.809,396.484,16.235,-119.019
-0.054,0.274,-0.688,390.32,8.057,-124.207
-0.029,0.179,-0.577,382.141,1.16,-126.099
-0.011,0.105,-0.485,373.291,-1.343,-125.183
0.001,0.018,-0.41,366.76,-0.549,-121.826
0.019,-0.03,-0.313,360.229,-0.061,-117.126
0.006,-0.061,-0.195,350.098,-2.136,-111.389
0.004,-0.081,-0.098,341.614,-3.113,-108.215
0.009,-0.11,-0.02,334.656,-1.465,-108.032
0.054,-0.168,0.052,325.562,0.977,-106.079
0.112,-0.211,0.162,314.88,0.854,-101.257
0.195,-0.242,0.265,304.871,1.282,-93.445
0.258,-0.271,0.326,294.312,6.348,-82.397
0.333,-0.33,0.379,287.354,15.564,-73.364
0.41,-0.382,0.451,279.968,21.484,-67.078
0.448,-0.448,0.559,271.79,17.761,-61.401
0.435,-0.522,0.722,259.521,9.033,-59.937
0.387,-0.596,0.922,242.676,-1.831,-64.514
0.341,-0.686,1.122,217.346,-16.724,-76.355
0.289,-0.859,1.35,182.617,-34.058,-95.215
0.293,-1.038,1.569,146.24,-50.842,-113.647
0.305,-1.194,1.802,108.826,-62.866,-124.939
0.396,-1.232,1.989,69.763,-64.636,-122.742
0.508,-1.183,2.042,29.114,-54.688,-103.821
0.601,-0.998,1.884,-8.362,-36.621,-69.763
0.64,-0.765,1.536,-40.222,-14.771,-29.785
0.655,-0.47,1.218,-65.43,1.16,8.423
0.65,-0.164,0.962,-83.679,12.939,37.659
0.661,0.139,0.731,-96.008,20.63,55.847
0.652,0.366,0.536,-103.394,21.973,65.613
0.627,0.508,0.401,-107.422,17.151,68.787
0.59,0.593,0.358,-105.042,9.338,65.979
0.557,0.632,0.395,-98.45,2.38,60.303
0.528,0.631,0.488,-93.14,-1.465,53.711
0.506,0.582,0.585,-92.224,-3.418,47.546
0.499,0.501,0.68,-96.924,-7.141,42.786
0.483,0.421,0.77,-105.652,-13.428,39.978
0.465,0.348,0.838,-117.92,-19.104,38.757
0.453,0.282,0.868,-133.179,-22.583,38.818
0.446,0.226,0.884,-152.344,-25.024,40.466
0.439,0.174,0.877,-171.448,-26.794,45.349
0.382,0.138,0.833,-187.622,-25.94,52.612
0.387,0.116,0.707,-197.144,-21.851,61.951
0.307,0.184,0.613,-201.843,-13.611,73.73
0.252,0.243,0.545,-197.876,-4.639,79.773
0.213,0.298,0.499,-199.829,8.728,84.229
0.192,0.333,0.43,-204.041,20.447,86.365
0.173,0.375,0.404,-213.196,25.513,87.219
0.162,0.373,0.393,-223.389,23.437,86.365
0.16,0.366,0.358,-230.896,17.883,82.52
0.17,0.383,0.313,-239.014,12.573,77.087
0.187,0.4,0.258,-253.357,8.118,75.5
0.2,0.39,0.18,-272.095,6.531,78.552
0.198,0.366,0.052,-287.476,8.301,85.693
0.132,0.367,-0.156,-285.034,13.977,95.093
0.093,0.43,-0.354,-266.174,24.78,102.6
0.039,0.52,-0.469,-242.615,38.147,103.699
-0.006,0.594,-0.505,-221.558,47.363,97.534
-0.02,0.654,-0.498,-206.299,46.814,85.571
-0.028,0.676,-0.493,-202.881,39.307,72.266
-0.031,0.674,-0.503,-214.05,26.672,61.462
-0.009,0.679,-0.529,-228.455,8.179,53.65
0.011,0.671,-0.568,-249.084,-14.832,47.668
0.062,0.641,-0.614,-277.893,-38.635,46.997
0.08,0.598,-0.708,-308.411,-50.659,55.725
0.071,0.52,-0.805,-332.947,-45.959,70.068
0.036,0.477,-0.91,-349.426,-28.259,83.618
-0.034,0.446,-0.985,-333.252,-4.7,92.407
-0.108,0.477,-0.989,-293.335,15.991,93.201
-0.177,0.542,-1.003,-247.742,29.724,81.97
-0.207,0.591,-1.009,-211.426,32.227,61.34
-0.206,0.594,-0.995,-195.862,18.738,38.269
-0.169,0.551,-1.028,-192.688,-4.639,19.47
-0.088,0.477,-1.053,-198.73,-29.541,7.202
-0.018,0.434,-1.066,-212.341,-49.561,2.747
0.042,0.393,-1.082,-228.455,-57.251,5.493
0.088,0.35,-1.089,-239.685,-50.964,14.465
0.103,0.311,-1.142,-245.911,-30.762,27.466
0.088,0.298,-1.248,-244.507,-2.441,43.64
0.036,0.31,-1.377,-236.328,27.893,60.852
-0.016,0.347,-1.428,-229.431,50.659,74.341
-0.087,0.391,-1.525,-218.567,61.279,80.322
-0.143,0.428,-1.563,-207.764,57.19,79.346
-0.167,0.452,-1.571,-195.618,38.818,71.533
-0.17,0.439,-1.548,-186.34,11.047,59.814
-0.157,0.412,-1.525,-178.711,-17.029,46.143
-0.136,0.358,-1.485,-174.377,-41.382,33.936
-0.085,0.303,-1.32,-180.664,-59.753,24.414
-0.04,0.216,-1.333,-162.109,-64.026,16.174
-0.014,0.135,-1.309,-152.893,-60.364,10.986
-0.004,0.051,-1.4,-153.32,-50.72,10.559
0.044,0.05,-1.278,-148.376,-44.25,14.526
0.006,-0.056,-1.268,-141.541,-28.198,14.282
-0.01,-0.059,-1.267,-116.882,-9.949,15.93
-0.013,-0.042,-1.328,-94.543,4.089,17.029
-0.01,0.014,-1.368,-73.303,10.01,15.93
-0.027,0.02,-1.366,-62.988,9.338,13.062
-0.036,0,-1.356,-61.279,4.578,9.949
-0.036,-0.016,-1.354,-58.838,-1.587,6.531
-0.023,-0.03,-1.36,-54.016,-9.033,2.502
-0.008,-0.049,-1.347,-47.058,-18.311,-1.221
0.002,-0.065,-1.308,-39.246,-26.917,-2.991
0.18,0.359,-2.223,203.308,-4.028,23.254
0.141,0.438,-2.267,227.112,15.137,22.644
0.093,0.534,-2.249,251.587,33.081,16.785
0.052,0.613,-2.164,273.132,41.504,5.737
0.021,0.619,-2.05,288.452,40.527,-7.568
0.013,0.606,-1.993,300.903,35.522,-22.522
0.016,0.584,-1.983,310.486,30.334,-33.63
0.017,0.625,-1.962,321.35,24.17,-38.879
0.012,0.657,-1.913,333.74,18.677,-43.884
-0.009,0.652,-1.859,346.802,17.029,-53.162
-0.019,0.67,-1.831,360.657,21.851,-62.5
-0.034,0.652,-1.797,375.977,25.94,-71.411
-0.043,0.663,-1.729,391.357,23.987,-80.933
-0.054,0.665,-1.638,402.832,17.09,-90.942
-0.037,0.615,-1.51,410.034,5.92,-103.638
-0.01,0.579,-1.398,410.339,-5.859,-112.427
-0.009,0.575,-1.313,409.302,-13.184,-113.342
0.011,0.534,-1.214,409.302,-13.916,-112.671
0.043,0.477,-1.121,410.522,-9.155,-110.535
0.068,0.431,-1.063,411.743,-3.296,-105.957
0.069,0.38,-1.026,411.011,1.16,-99.365
0.042,0.353,-1.018,410.278,3.235,-93.506
0.019,0.29,-0.98,405.212,-3.357,-90.942
0.011,0.254,-0.864,392.883,-23.865,-92.224
-0.058,0.205,-0.736,372.742,-55.237,-97.351
-0.069,0.109,-0.631,355.103,-80.383,-108.154
-0.024,-0.066,-0.57,342.651,-90.82,-120.239
0.04,-0.265,-0.503,338.501,-90.698,-124.207
0.098,-0.425,-0.376,340.82,-86.182,-117.31
0.105,-0.568,-0.199,343.628,-80.627,-101.746
0.108,-0.738,0.003,347.229,-71.35,-87.524
0.074,-0.959,0.325,338.989,-69.763,-77.942
-0.057,-1.207,0.741,319.397,-81.421,-75.012
-0.285,-1.543,1.262,287.354,-97.351,-83.679
-0.663,-2.051,1.942,242.004,-116.089,-106.995
-1.049,-2.629,2.804,185.791,-134.399,-145.813
-1.198,-2.94,3.617,123.352,-140.93,-180.054
-0.976,-2.782,3.941,54.504,-118.652,-182.312
-0.478,-2.262,3.469,-19.287,-69.336,-152.893
0.004,-1.706,2.457,-91.98,-17.578,-108.032
0.344,-1.059,1.46,-145.447,17.09,-57.129
0.6,-0.443,0.731,-173.157,36.011,-9.705
0.789,0.086,0.227,-177.551,48.157,20.325
0.916,0.504,-0.083,-163.879,56.458,34.851
0.997,0.804,-0.167,-140.259,56.152,41.748
1.014,0.989,-0.067,-114.258,48.706,46.143
0.986,1.088,0.089,-91.309,41.931,50.598
0.937,1.068,0.239,-74.097,40.161,55.908
0.874,1.013,0.383,-62.927,39.856,64.697
0.789,0.926,0.528,-57.983,37.292,75.5
0.688,0.835,0.653,-57.983,35.156,86.548
0.593,0.729,0.742,-62.622,35.217,96.497
0.498,0.639,0.809,-69.885,35.889,104.248
0.401,0.562,0.831,-80.078,34.851,109.741
0.314,0.518,0.801,-89.6,31.25,111.45
0.247,0.5,0.736,-97.595,25.696,108.643
0.197,0.488,0.699,-103.394,19.165,101.99
0.179,0.478,0.686,-109.436,12.756,94.238
0.145,0.468,0.698,-118.53,6.104,86.792
0.116,0.473,0.678,-131.042,1.404,80.566
0.105,0.472,0.701,-148.926,-2.258,75.928
0.074,0.463,0.665,-166.565,-2.869,70.435
0.065,0.465,0.625,-184.875,-1.221,65.918
0.054,0.451,0.565,-198.853,-2.197,61.218
0.049,0.446,0.515,-212.158,-4.578,57.373
0.057,0.442,0.467,-221.13,-6.47,54.016
0.048,0.418,0.408,-222.778,-4.761,49.072
0.043,0.442,0.304,-216.98,-0.061,46.082
0.04,0.502,0.217,-207.031,6.531,42.847
0.049,0.544,0.156,-199.158,11.963,37.109
0.063,0.576,0.113,-193.298,13.855,30.334
0.073,0.587,0.091,-190.369,13.123,23.743
0.091,0.598,0.075,-191.345,10.986,19.409
0.089,0.618,0.049,-195.496,6.165,17.151
0.085,0.637,0.008,-202.454,-0.427,15.991
0.104,0.64,-0.047,-212.402,-5.249,14.404
0.112,0.626,-0.121,-225.403,-7.874,12.756
0.11,0.641,-0.255,-239.319,-7.385,13.794
0.113,0.589,-0.394,-243.652,-5.493,17.273
0.1,0.652,-0.551,-237.061,-1.587,18.677
0.091,0.646,-0.632,-223.755,3.418,17.7
0.08,0.682,-0.711,-191.345,14.893,13.245
0.091,0.717,-0.724,-160.278,29.114,4.456
0.108,0.721,-0.702,-141.113,38.757,-3.357
0.161,0.678,-0.686,-136.047,41.687,-6.714
0.215,0.695,-0.705,-140.198,36.255,-3.784
0.187,0.736,-0.761,-150.513,23.987,4.517
0.181,0.751,-0.756,-166.809,9.949,15.076
0.19,0.749,-0.712,-180.786,5.798,20.386
0.195,0.738,-0.689,-188.293,12.329,23.132
0.184,0.692,-0.7,-191.833,27.466,26.733
0.14,0.685,-0.753,-192.81,46.021,33.02
0.1,0.663,-0.8,-193.848,60.913,39.063
0.062,0.644,-0.841,-192.566,68.665,39.246
0.031,0.646,-0.904,-174.744,70.496,33.081
0.051,0.635,-0.956,-149.841,66.895,23.132
0.103,0.556,-1.028,-142.029,60.913,13.611
0.163,0.502,-1.108,-144.287,49.072,13.428
0.185,0.515,-1.186,-150.696,28.992,24.414
0.165,0.565,-1.223,-158.569,6.958,39.734
0.125,0.619,-1.224,-166.687,-7.69,51.025
0.086,0.649,-1.236,-170.227,-10.62,54.443
0.06,0.652,-1.22,-167.664,-4.15,50.11
0.028,0.647,-1.176,-161.621,4.7,43.396
-0.001,0.623,-1.167,-154.663,11.047,38.513
-0.004,0.59,-1.104,-149.17,10.437,32.227
-0.033,0.562,-1.068,-146.973,4.028,23.499
-0.024,0.52,-1,-146.545,-5.981,13.611
0.014,0.449,-0.981,-138.977,-18.066,5.371
0.063,0.362,-0.965,-138.184,-27.527,1.465
0.12,0.335,-0.965,-138.123,-31.006,1.648
0.108,0.31,-1.03,-143.86,-28.87,9.033
0.126,0.302,-1.041,-146.606,-20.691,17.761
0.111,0.297,-1.061,-146.729,-6.104,23.682
0.08,0.291,-1.106,-135.803,10.559,25.757
0.056,0.292,-1.095,-125.671,23.804,24.536
0.028,0.29,-1.127,-112.122,30.762,21.423
0.008,0.291,-1.125,-101.501,29.724,17.029
-0.004,0.289,-1.109,-98.328,20.752,12.085
-0.121,0.368,-2.278,275.574,67.688,-51.575
-0.118,0.401,-2.246,278.076,54.26,-59.021
-0.068,0.362,-2.222,298.279,45.959,-68.42
-0.03,0.333,-2.188,309.265,37.231,-74.158
-0.03,0.401,-2.143,316.528,25.452,-71.045
-0.054,0.458,-2.013,322.266,14.099,-66.956
-0.037,0.481,-1.91,331.604,6.958,-68.97
-0.006,0.443,-1.805,337.341,1.709,-76.355
0.006,0.435,-1.761,344.055,-2.197,-78.735
0.003,0.51,-1.698,352.905,-2.502,-74.524
0.004,0.548,-1.603,364.197,4.517,-74.158
0.024,0.541,-1.508,376.526,14.343,-80.383
0.058,0.527,-1.422,387.207,21.79,-86.06
0.117,0.515,-1.364,393.005,29.846,-86.304
0.127,0.582,-1.345,396.606,43.03,-79.956
0.115,0.624,-1.325,401.794,60.181,-71.045
0.132,0.654,-1.255,413.147,78.857,-65.247
0.115,0.67,-1.213,420.837,98.328,-59.753
0.075,0.675,-1.211,425.232,113.892,-58.044
0.006,0.69,-1.195,428.467,122.62,-62.378
-0.1,0.673,-1.178,427.246,117.981,-76.172
-0.199,0.605,-1.13,427.49,100.708,-107.422
-0.271,0.462,-1.035,419.739,66.956,-154.907
-0.323,0.263,-0.887,399.658,16.235,-211.731
-0.36,0.034,-0.723,373.291,-44.373,-269.287
-0.352,-0.198,-0.53,341.187,-107.422,-319.397
-0.319,-0.373,-0.33,306.885,-169.312,-354.431
-0.283,-0.57,-0.133,276.367,-224.365,-370.789
-0.234,-0.746,0.043,255.31,-258.789,-364.38
-0.151,-0.845,0.223,249.023,-265.015,-339.172
-0.108,-0.939,0.44,243.896,-251.587,-303.345
-0.086,-1.037,0.637,240.112,-226.685,-260.803
-0.09,-1.139,0.833,237.61,-196.045,-215.149
-0.13,-1.272,1.063,231.14,-165.833,-169.678
-0.235,-1.418,1.353,219.666,-140.808,-129.517
-0.374,-1.634,1.665,204.773,-118.286,-98.022
-0.502,-1.884,2.077,179.504,-93.567,-75.134
-0.515,-1.979,2.521,147.217,-64.575,-55.298
-0.482,-1.868,2.857,104.858,-30.09,-32.349
-0.294,-1.506,2.877,54.199,6.042,-2.869
-0.102,-1.11,2.478,-7.263,38.269,24.048
0.042,-0.744,1.836,-71.106,58.472,44.922
0.17,-0.391,1.233,-120.85,60.669,62.134
0.279,-0.057,0.753,-148.987,56.213,72.144
0.399,0.253,0.396,-152.71,53.65,74.707
0.516,0.473,0.21,-140.259,53.04,74.89
0.588,0.604,0.182,-120.178,52.856,78.43
0.631,0.675,0.275,-96.924,52.551,86.67
0.643,0.685,0.429,-76.294,52.551,99.06
0.624,0.656,0.601,-63.049,53.467,114.014
0.577,0.607,0.744,-59.387,54.077,129.15
0.517,0.546,0.844,-66.711,50.659,143.127
0.434,0.492,0.891,-81.97,41.321,154.236
0.365,0.461,0.877,-99.548,31.982,158.142
0.304,0.422,0.825,-118.896,25.146,155.029
0.227,0.396,0.77,-140.259,18.555,149.902
0.176,0.352,0.734,-150.879,6.958,140.137
0.133,0.348,0.655,-155.64,2.625,128.113
0.107,0.37,0.584,-162.598,2.563,120.483
0.092,0.39,0.561,-168.335,0.977,112.732
0.086,0.408,0.548,-178.345,-1.16,103.882
0.069,0.414,0.558,-192.871,-3.418,94.299
0.063,0.427,0.541,-209.961,-7.629,83.252
0.065,0.43,0.514,-234.07,-15.625,72.998
0.051,0.411,0.443,-259.094,-25.391,64.392
0.042,0.457,0.294,-272.278,-31.372,56.763
0.03,0.471,0.123,-276.855,-29.846,48.401
0.039,0.519,-0.033,-270.996,-25.513,40.71
0.066,0.546,-0.11,-259.155,-20.752,32.043
0.096,0.571,-0.154,-239.014,-13.794,23.499
0.116,0.584,-0.171,-218.872,-4.272,18.066
0.142,0.593,-0.201,-204.102,7.629,17.761
0.192,0.604,-0.218,-200.806,17.822,20.691
0.219,0.635,-0.248,-207.825,18.188,26.611
0.199,0.699,-0.313,-224.06,7.507,35.156
0.191,0.734,-0.379,-245.911,-5.676,41.687
0.202,0.737,-0.439,-270.203,-14.16,43.091
0.201,0.704,-0.546,-282.41,-15.32,43.396
0.18,0.68,-0.642,-276.489,-9.521,43.945
0.159,0.664,-0.699,-258.606,3.052,43.274
0.128,0.681,-0.716,-230.652,18.372,40.527
0.108,0.705,-0.693,-209.045,29.358,33.447
0.111,0.647,-0.672,-199.768,31.311,23.56
0.177,0.607,-0.723,-199.585,25.879,18.127
0.189,0.598,-0.771,-205.444,15.381,19.47
0.191,0.615,-0.823,-215.149,4.7,25.146
0.183,0.646,-0.871,-224.609,-0.122,31.006
0.197,0.632,-0.838,-236.511,1.099,33.752
0.175,0.632,-0.868,-238.647,9.46,35.339
0.143,0.6,-0.894,-240.051,19.836,34.973
0.108,0.58,-0.976,-229.797,26.672,36.438
0.079,0.59,-1.031,-209.839,27.893,35.583
0.079,0.607,-1.03,-186.401,25.208,28.198
0.077,0.59,-1.021,-161.499,19.409,15.808
0.09,0.55,-1.013,-146.973,11.841,4.883
0.132,0.482,-1.001,-145.752,7.263,-1.221
0.177,0.404,-1.028,-148.987,8.118,-2.014
0.208,0.364,-1.105,-152.893,12.329,4.456
0.208,0.377,-1.173,-162.354,18.494,17.456
0.186,0.409,-1.238,-171.814,26.55,32.471
0.146,0.429,-1.282,-181.946,35.156,45.837
0.089,0.453,-1.354,-182.434,42.542,55.359
0.023,0.483,-1.439,-177.673,45.044,60.913
-0.02,0.504,-1.485,-169.678,39.429,61.157
-0.05,0.508,-1.505,-157.776,26.917,56.213
-0.072,0.499,-1.489,-145.508,9.827,47.974
-0.083,0.473,-1.457,-133.484,-9.155,37.72
-0.068,0.439,-1.362,-121.338,-29.968,27.283
-0.046,0.375,-1.303,-110.535,-46.753,16.968
-0.021,0.323,-1.196,-109.924,-54.382,8.728
-0.002,0.259,-1.153,-107.605,-49.438,4.578
0.026,0.216,-1.151,-113.037,-38.391,6.226
0.025,0.168,-1.143,-115.845,-22.4,10.376
0.004,0.159,-1.18,-113.464,-6.104,16.663
-0.015,0.162,-1.188,-107.3,5.92,21.851
-0.035,0.171,-1.226,-94.543,12.512,23.865
-0.045,0.186,-1.256,-78.186,13.367,22.827
-0.05,0.191,-1.251,-65.186,9.949,19.104
-0.05,0.18,-1.245,-56.274,4.028,14.893
-0.006,-1.968,1.689,221.497,-75.256,-132.935
-0.162,-2.456,2.26,184.998,-65.552,-129.028
-0.219,-2.677,2.84,138.977,-43.945,-117.004
-0.088,-2.517,3.23,77.332,-21.179,-88.135
0.121,-1.977,2.939,10.132,0.732,-48.523
0.273,-1.538,2.223,-60.974,20.813,-14.099
0.387,-1.027,1.414,-120.3,32.166,19.043
0.495,-0.538,0.81,-156.189,33.142,48.584
0.562,-0.062,0.391,-168.64,33.203,64.392
0.615,0.273,0.14,-164.246,35.4,71.167
0.645,0.499,0.078,-150.208,35.828,74.829
0.645,0.656,0.159,-131.836,33.997,77.82
0.612,0.752,0.302,-116.455,32.043,79.468
0.571,0.764,0.428,-107.544,31.738,79.407
0.503,0.728,0.524,-105.591,31.311,78.064
0.476,0.67,0.602,-109.436,28.259,77.087
0.436,0.622,0.695,-118.164,20.996,76.05
0.396,0.557,0.717,-123.23,12.268,72.51
0.356,0.531,0.703,-128.418,8.728,69.946
0.328,0.505,0.66,-129.578,7.263,67.505
0.335,0.479,0.626,-130.371,8.972,66.101
0.323,0.461,0.617,-132.935,10.803,66.833
0.311,0.461,0.608,-138.367,11.597,68.787
0.281,0.449,0.552,-146.606,12.085,70.679
0.23,0.442,0.508,-155.762,10.742,74.158
0.188,0.47,0.456,-161.682,11.23,78.125
0.152,0.483,0.424,-167.664,14.16,78.003
0.127,0.472,0.411,-177.551,15.076,73.608
0.12,0.458,0.415,-191.284,10.986,66.833
0.131,0.444,0.41,-208.374,2.258,59.57
0.146,0.44,0.38,-226.868,-7.812,53.955
0.151,0.441,0.283,-240.845,-14.893,51.819
0.16,0.456,0.171,-250,-15.686,51.636
0.173,0.458,0.052,-256.897,-11.536,52.429
0.166,0.462,-0.054,-260.62,-6.042,55.847
0.163,0.494,-0.142,-259.766,0.427,60.608
0.16,0.531,-0.205,-254.578,8.24,62.744
0.162,0.552,-0.227,-251.526,16.602,62.744
0.157,0.562,-0.245,-247.498,24.353,63.843
0.166,0.552,-0.259,-247.375,31.738,65.796
0.184,0.502,-0.298,-252.014,37.659,70.007
0.161,0.567,-0.349,-261.841,39.551,78.979
0.141,0.57,-0.412,-277.588,38.818,89.355
0.108,0.55,-0.515,-294.373,36.316,96.68
0.062,0.534,-0.644,-304.382,31.677,102.112
0.019,0.548,-0.814,-304.138,28.931,104.614
-0.011,0.559,-0.985,-284.668,27.588,102.173
-0.027,0.595,-1.05,-257.507,24.841,93.994
-0.017,0.628,-1.059,-230.408,21.851,81.665
-0.034,0.645,-1.023,-212.463,21.851,69.58
-0.05,0.645,-1.014,-206.055,26.367,61.279
-0.055,0.627,-0.995,-205.75,30.151,54.871
-0.041,0.613,-1.008,-208.862,26.55,49.194
-0.013,0.595,-1.04,-218.994,17.09,46.875
-0.015,0.584,-1.119,-236.45,6.409,49.866
-0.007,0.568,-1.133,-259.644,-2.258,55.42
0.002,0.538,-1.23,-269.165,-7.751,61.951
-0.015,0.524,-1.239,-272.949,-12.024,67.749
-0.017,0.485,-1.312,-264.648,-10.437,69.153
-0.07,0.461,-1.441,-253.967,-6.409,69.397
-0.106,0.496,-1.243,-242.065,-17.456,70.679
-0.135,0.493,-1.304,-231.079,-18.738,61.523
-0.129,0.478,-1.297,-207.581,-24.536,44.739
-0.106,0.453,-1.259,-184.753,-37.781,27.893
-0.07,0.401,-1.176,-169.373,-50.964,14.587
-0.031,0.327,-1.143,-165.161,-58.35,6.042
0,0.256,-1.114,-161.865,-57.617,2.563
0.026,0.172,-1.147,-155.09,-48.828,2.441
0.043,0.141,-1.162,-148.865,-35.889,6.409
0.037,0.111,-1.17,-139.648,-21.057,12.878
0.016,0.091,-1.212,-128.052,-2.625,19.714
-0.007,0.098,-1.278,-112.549,15.93,24.658
-0.044,0.113,-1.327,-93.689,28.687,28.87
-0.067,0.114,-1.336,-77.637,33.875,32.593
-0.096,0.12,-1.369,-62.256,35.706,32.349
-0.11,0.162,-1.391,-49.927,31.372,27.954
-0.112,0.178,-1.389,-41.504,21.301,18.372
-0.111,0.151,-1.35,-37.598,6.348,9.094
-0.096,0.129,-1.312,-41.016,-7.507,4.15
-0.084,0.086,-1.313,-46.753,-15.808,2.258
-0.083,0.064,-1.317,-49.438,-19.897,2.747
-0.075,0.069,-1.293,-48.706,-22.644,4.333
-0.061,0.068,-1.275,-41.992,-20.508,3.174
-0.052,0.053,-1.286,-33.508,-13.672,-0.061
-0.036,0.049,-1.27,-25.33,-6.958,-2.869
-0.027,0.029,-1.269,-16.724,-1.709,-5.737
-0.013,0.021,-1.265,-10.315,1.526,-7.507
-0.011,0.028,-1.246,-4.578,1.709,-8.423
0.004,0.037,-1.227,2.075,-0.549,-10.071
0.017,0.04,-1.211,4.761,-2.625,-12.451
0.029,0.038,-1.181,2.991,-6.836,-13.855
0.046,0.034,-1.142,0.671,-12.024,-15.686
0.057,0.038,-1.108,-1.465,-15.686,-17.578
0.072,0.036,-1.072,-3.296,-16.785,-18.921
0.083,0.033,-1.043,-3.174,-15.381,-19.226
0.101,0.022,-1.029,-0.427,-12.634,-19.043
0.111,0.01,-1.017,5.005,-9.155,-18.372
0.115,0.025,-1.008,10.62,-5.798,-16.113
0.115,0.039,-1.003,13.977,-3.479,-13.184
0.111,0.057,-0.991,14.648,-3.296,-11.169
0.114,0.06,-0.985,13.123,-4.7,-10.254
0.119,0.053,-0.968,11.78,-7.263,-9.888
0.117,0.051,-0.961,10.437,-8.423,-8.423
0.112,0.051,-0.963,10.559,-7.996,-6.592
0.101,0.061,-0.963,10.742,-7.446,-5.005
0.091,0.063,-0.958,10.376,-7.629,-3.662
0.087,0.063,-0.966,10.376,-8.057,-2.869
0.081,0.069,-0.98,10.315,-8.484,-2.502
0.081,0.077,-0.982,8.85,-9.46,-1.709
0.073,0.081,-0.97,6.897,-10.315,-0.854
0.061,0.071,-0.971,7.141,-9.277,-0.488
0.056,0.073,-0.986,10.803,-7.507,-0.549
0.058,0.09,-1.001,16.296,-6.592,-0.549
0.054,0.097,-1.018,17.517,-5.737,-0.732
0.048,0.102,-1.015,14.526,-4.456,-0.793
0.047,0.105,-1.025,12.39,-3.967,-0.977
0.053,0.106,-1.031,10.132,-4.272,-1.221
0.057,0.107,-1.035,6.653,-4.15,-1.221
0.057,0.106,-1.036,3.235,-3.601,-1.099
-0.182,-1.655,1.656,226.807,-94.36,-171.814
-0.263,-2.083,2.166,188.416,-91.797,-179.321
-0.29,-2.326,2.667,141.479,-78.491,-171.143
-0.199,-2.284,3.028,80.627,-58.533,-148.621
-0.022,-1.92,2.864,18.311,-29.175,-104.858
0.136,-1.471,2.249,-45.898,2.38,-51.147
0.23,-0.96,1.536,-103.027,21.057,-3.052
0.298,-0.474,1.017,-139.648,27.649,35.583
0.319,-0.03,0.612,-153.32,36.133,56.396
0.361,0.328,0.334,-147.888,46.021,63.232
0.403,0.542,0.239,-135.376,49.133,62.561
0.428,0.675,0.305,-121.216,45.654,55.847
0.441,0.725,0.441,-109.985,41.687,47.119
0.438,0.702,0.558,-104.431,40.1,39.063
0.435,0.646,0.645,-103.638,39.612,33.02
0.434,0.566,0.721,-107.361,37.781,30.273
0.424,0.48,0.794,-115.051,34.241,29.724
0.427,0.396,0.848,-126.587,30.823,31.067
0.446,0.327,0.884,-140.869,26.428,34.912
0.406,0.312,0.826,-161.194,23.071,41.138
0.402,0.249,0.848,-176.758,14.648,47.363
0.372,0.227,0.737,-189.697,16.235,53.467
0.362,0.232,0.643,-201.782,20.02,61.279
0.336,0.261,0.566,-208.252,22.644,71.167
0.324,0.306,0.479,-212.708,27.527,80.078
0.285,0.35,0.42,-219.91,31.067,85.754
0.245,0.357,0.371,-228.394,33.813,88.501
0.221,0.378,0.342,-238.098,36.499,88.379
0.211,0.397,0.297,-250.244,38.025,86.121
0.212,0.409,0.25,-268.433,36.804,83.069
0.22,0.395,0.166,-287.415,33.081,80.627
0.205,0.43,0.069,-299.988,26.672,78.125
0.209,0.437,-0.054,-309.448,20.142,74.524
0.209,0.463,-0.159,-317.139,16.785,71.228
0.223,0.474,-0.201,-326.843,18.799,67.078
0.214,0.467,-0.312,-334.717,27.954,62.927
0.218,0.447,-0.417,-332.153,38.208,61.89
0.195,0.419,-0.5,-327.026,46.021,64.636
0.203,0.423,-0.526,-318.481,52.368,68.604
0.15,0.489,-0.5,-313.782,59.692,71.716
0.14,0.467,-0.583,-305.176,66.345,70.74
0.076,0.478,-0.595,-314.331,67.566,63.782
0.047,0.49,-0.597,-339.966,58.472,60.059
0.055,0.458,-0.593,-361.511,45.715,51.27
0.077,0.368,-0.621,-364.868,34.973,36.072
0.094,0.249,-0.706,-365.051,27.649,22.522
0.1,0.158,-0.747,-365.234,24.475,18.005
0.133,0.037,-0.874,-358.032,27.588,20.813
0.171,-0.092,-1.039,-341.919,35.889,30.457
0.163,-0.134,-1.173,-323.059,49.744,48.645
0.145,-0.058,-1.2,-301.331,71.838,64.514
0.06,-0.004,-1.29,-276.062,98.999,71.167
-0.02,0.061,-1.359,-250.366,116.333,72.266
-0.069,0.131,-1.424,-233.337,115.234,71.472
-0.098,0.165,-1.468,-224.182,99.121,65.491
-0.13,0.185,-1.495,-218.811,70.374,54.81
-0.104,0.146,-1.531,-215.088,31.86,44.434
-0.071,0.078,-1.536,-208.191,-8.972,39.185
-0.045,0.055,-1.536,-197.144,-40.527,40.649
-0.02,0.069,-1.527,-182.678,-58.105,41.748
-0.037,0.088,-1.503,-168.579,-64.026,39.429
-0.054,0.094,-1.485,-157.776,-60.669,34.851
-0.059,0.094,-1.493,-149.597,-50.659,30.762
-0.063,0.084,-1.505,-142.761,-36.804,26.794
-0.064,0.063,-1.532,-136.23,-22.339,22.888
-0.06,0.037,-1.567,-127.869,-11.658,19.775
-0.051,0.008,-1.603,-119.385,-6.47,18.555
-0.039,-0.004,-1.608,-111.572,-6.042,19.043
-0.038,-0.022,-1.603,-102.478,-9.155,18.066
0.006,-0.041,-1.58,-90.332,-13.855,16.602
-0.047,-0.077,-1.586,-79.773,-12.451,16.418
-0.005,-0.077,-1.581,-67.871,-18.066,19.348
0.014,-0.103,-1.581,-56.519,-18.921,17.029
-0.003,-0.107,-1.559,-41.016,-18.616,6.042
0.001,-0.093,-1.51,-26.733,-21.667,-3.906
0.027,-0.104,-1.452,-15.259,-24.414,-10.193
0.05,-0.131,-1.393,-7.324,-24.414,-15.259
0.069,-0.143,-1.337,-1.099,-22.522,-18.921
0.102,-0.16,-1.296,4.395,-19.287,-19.897
0.125,-0.175,-1.249,7.935,-14.526,-18.25
0.134,-0.177,-1.196,10.193,-7.751,-16.296
0.145,-0.167,-1.165,13.855,-2.686,-15.015
0.145,-0.156,-1.131,16.174,0.488,-14.526
0.146,-0.152,-1.105,15.564,2.38,-14.099
0.153,-0.154,-1.075,14.404,2.014,-13.672
0.155,-0.15,-1.051,14.465,0.244,-13.306
0.158,-0.14,-1.02,14.893,-2.014,-12.817
0.161,-0.127,-0.996,13.977,-3.967,-12.695
0.167,-0.124,-0.971,12.512,-6.287,-12.756
0.168,-0.126,-0.945,11.108,-8.301,-12.329
0.171,-0.118,-0.928,9.094,-9.399,-11.353
0.176,-0.113,-0.908,7.141,-9.583,-10.132
0.182,-0.124,-0.893,6.47,-8.972,-8.301
0.178,-0.115,-0.881,7.568,-6.165,-5.188
0.172,-0.087,-0.883,8.179,-1.892,-2.686
0.163,-0.062,-0.89,7.202,1.343,-1.282
0.156,-0.048,-0.904,3.967,1.587,-0.183
0.157,-0.047,-0.915,-0.244,-0.61,0.366
0.16,-0.056,-0.915,-2.808,-2.808,0.427
0.156,-0.057,-0.92,-4.028,-2.563,1.282
0.15,-0.047,-0.935,-4.944,0.793,2.991
0.138,-0.037,-0.954,-6.409,4.822,4.333
0.13,-0.034,-0.978,-8.423,6.714,4.517
0.125,-0.047,-0.997,-10.132,5.554,4.395
0.123,-0.065,-1.013,-8.667,2.869,4.944
0.121,-0.06,-1.024,-5.432,2.319,5.31
0.115,-0.047,-1.034,-2.808,4.028,5.249
0.111,-0.038,-1.043,-1.831,4.822,4.944
0.109,-0.036,-1.052,-2.686,2.808,3.906
0.106,-0.046,-1.055,-4.944,-0.305,3.113
0.105,-0.06,-1.058,-6.409,-2.686,3.113
0.105,-0.059,-1.061,-5.615,-4.395,2.563
0.105,-0.055,-1.058,-4.761,-4.944,1.709
0.103,-0.055,-1.051,-4.456,-5.066,1.099
0.105,-0.062,-1.037,-4.517,-5.005,0.671
0.106,-0.076,-1.028,-4.7,-3.784,0.366
0.106,-0.083,-1.027,-4.395,-1.526,0.977
0.098,-0.085,-1.027,-2.991,0.732,1.953
0.094,-0.074,-1.032,0.977,1.831,1.77
-0.542,-1.711,2.133,250.916,-111.877,-88.013
-0.624,-1.997,2.838,218.689,-74.097,-73.792
-0.617,-1.97,3.489,161.438,-35.889,-53.223
-0.458,-1.656,3.655,90.027,2.502,-30.151
-0.224,-1.303,3.043,19.958,35.645,-2.319
-0.07,-0.963,2.108,-53.284,54.932,25.391
0.051,-0.558,1.344,-114.014,54.443,49.255
0.141,-0.246,0.82,-153.687,48.279,67.2
0.194,0.034,0.462,-165.833,50.354,73.975
0.259,0.291,0.258,-158.997,59.753,74.158
0.31,0.446,0.222,-144.714,65.125,73.12
0.334,0.556,0.32,-130.31,63.049,71.96
0.331,0.626,0.47,-121.216,59.326,69.824
0.315,0.645,0.584,-119.873,57.373,66.833
0.292,0.629,0.661,-125.671,55.969,62.805
0.306,0.604,0.691,-134.888,52.002,58.716
0.339,0.597,0.719,-148.193,44.739,55.359
0.343,0.575,0.649,-166.565,37.842,54.871
0.363,0.544,0.659,-187.317,28.442,57.617
0.356,0.512,0.575,-197.815,26.062,62.805
0.33,0.513,0.489,-206.848,29.175,67.566
0.295,0.512,0.387,-206.665,34.119,72.632
0.255,0.528,0.295,-202.454,39.429,77.454
0.212,0.556,0.248,-197.266,42.297,79.651
0.173,0.561,0.238,-193.359,42.175,76.538
0.145,0.556,0.235,-193.848,40.771,70.007
0.137,0.552,0.245,-201.05,38.635,62.073
0.159,0.535,0.215,-210.815,36.255,55.054
0.206,0.516,0.152,-225.952,34.119,51.758
0.231,0.504,0.063,-245.422,33.325,53.04
0.219,0.488,-0.039,-261.902,33.997,59.631
0.197,0.477,-0.148,-276.062,37.72,67.2
0.159,0.488,-0.266,-281.921,43.457,71.289
0.126,0.51,-0.406,-275.635,48.584,71.594
0.098,0.553,-0.532,-261.597,51.453,67.444
0.093,0.596,-0.621,-244.568,50.842,58.044
0.076,0.625,-0.672,-226.868,46.448,45.715
0.094,0.677,-0.671,-212.097,38.391,34.424
0.134,0.618,-0.708,-197.449,31.799,23.193
0.159,0.641,-0.712,-201.477,21.79,17.395
0.22,0.608,-0.701,-208.008,14.099,19.531
0.229,0.586,-0.724,-211.243,12.39,24.231
0.234,0.597,-0.737,-218.262,14.893,31.372
0.229,0.606,-0.751,-229.248,19.592,39.185
0.212,0.573,-0.821,-241.455,27.71,46.57
0.167,0.526,-0.921,-248.413,36.743,54.138
0.138,0.54,-1.014,-240.417,43.091,60.425
0.104,0.589,-1.096,-215.942,49.377,60.364
0.072,0.634,-1.098,-190.796,52.734,52.49
0.043,0.646,-1.07,-169.128,47.424,38.147
0.059,0.611,-1.021,-154.053,33.447,22.888
0.121,0.535,-1.008,-149.353,16.907,11.536
0.178,0.477,-1.028,-158.691,3.174,9.583
0.209,0.447,-1.102,-172.668,-2.38,18.555
0.206,0.462,-1.156,-189.209,1.343,32.471
0.183,0.497,-1.182,-203.003,11.963,45.593
0.125,0.521,-1.2,-213.379,27.405,53.894
0.067,0.531,-1.235,-221.375,44.373,57.312
0.037,0.478,-1.33,-225.098,56.641,57.251
0.002,0.447,-1.431,-217.834,60.791,58.96
-0.035,0.447,-1.489,-203.186,58.838,61.34
-0.055,0.464,-1.504,-180.969,52.49,58.899
-0.072,0.46,-1.495,-156.128,39.856,49.866
-0.081,0.449,-1.46,-131.531,20.142,37.903
-0.059,0.44,-1.393,-107.91,-3.845,26.428
-0.038,0.426,-1.295,-92.896,-27.283,16.113
-0.012,0.39,-1.197,-86.304,-46.326,7.507
0.018,0.349,-1.125,-86.548,-58.777,2.197
0.04,0.278,-1.046,-93.079,-63.538,0.366
0.047,0.224,-0.962,-99.731,-57.922,2.014
0.059,0.193,-0.954,-98.267,-41.016,4.944
0.038,0.191,-0.955,-98.145,-19.226,7.08
0.011,0.194,-0.982,-98.328,0.488,7.08
-0.001,0.181,-1.021,-98.328,14.099,5.31
-0.005,0.137,-1.07,-96.924,19.836,4.333
-0.005,0.101,-1.11,-91.98,20.264,6.836
-0.006,0.089,-1.145,-82.336,18.555,10.498
-0.009,0.098,-1.135,-70.313,15.869,10.803
-0.024,0.124,-1.115,-61.096,9.094,9.521
-0.03,0.123,-1.069,-53.833,-1.343,7.263
-0.023,0.098,-1.022,-46.692,-14.404,3.479
-0.011,0.071,-0.974,-41.199,-28.442,0.244
0.001,0.056,-0.932,-39.185,-40.039,-1.221
0.012,0.04,-0.887,-39.978,-47.485,-1.892
0.018,0.022,-0.851,-43.396,-49.5,-2.441
0.033,0.001,-0.83,-49.377,-45.654,-2.747
0.042,-0.03,-0.832,-56.03,-36.011,-2.197
0.044,-0.063,-0.861,-61.035,-22.034,-0.427
0.036,-0.086,-0.923,-62.805,-5.005,2.258
0.022,-0.082,-0.997,-59.326,10.376,3.967
0.012,-0.065,-1.065,-53.467,20.203,4.089
0.011,-0.055,-1.12,-47.791,23.01,3.174
0.01,-0.055,-1.154,-44.25,20.63,1.099
0.01,-0.042,-1.192,-42.786,13.672,-0.977
0.036,-0.047,-1.225,-44.128,4.639,-1.831
0.034,-0.064,-1.235,-45.959,-2.808,-1.465
0.05,-0.083,-1.246,-43.518,-8.85,0.854
0.061,-0.085,-1.243,-38.818,-11.353,1.709
0.065,-0.079,-1.25,-34.18,-13.672,0.122
0.074,-0.083,-1.242,-29.724,-12.634,-1.831
0.075,-0.085,-1.236,-25.94,-10.864,-5.066
0.08,-0.096,-1.224,-22.888,-13,-9.155
0.09,-0.114,-1.214,-18.799,-16.113,-11.597
0.115,-0.117,-1.2,-11.292,-17.578,-13.55
0.123,-0.107,-1.184,-3.601,-17.395,-15.259
0.14,-0.101,-1.163,0.732,-16.357,-14.893
0.154,-0.105,-1.136,2.197,-15.259,-13.611
0.168,-0.111,-1.112,2.38,-13.489,-13.245
0.174,-0.116,-1.092,2.563,-11.108,-13.794
0.182,-0.118,-1.077,2.197,-9.216,-13.672
0.191,-0.119,-1.067,1.892,-7.507,-12.756
0.192,-0.114,-1.059,1.648,-5.615,-11.902
0.198,-0.11,-1.053,0.916,-4.395,-11.292
0.203,-0.117,-1.049,0.305,-4.272,-10.803
0.204,-0.12,-1.043,0.183,-4.7,-9.888
0.207,-0.125,-1.04,2.38,-4.883,-8.728
0.211,-0.115,-1.034,5.92,-5.432,-7.202
0.208,-0.1,-1.026,8.789,-5.615,-5.127
0.198,-0.089,-1.016,10.62,-4.578,-3.601
-0.081,-1.582,1.721,181.458,-66.956,-139.465
-0.082,-1.876,2.148,140.32,-57.068,-137.024
-0.046,-2.004,2.58,97.107,-38.33,-122.864
0.108,-1.88,2.762,49.683,-13,-91.309
0.254,-1.568,2.5,7.019,11.902,-48.95
0.358,-1.224,1.97,-35.034,33.569,-6.287
0.417,-0.848,1.424,-73.364,46.204,28.992
0.49,-0.486,1.021,-102.539,52.063,56.58
0.53,-0.203,0.71,-121.277,56.824,71.716
0.564,-0.002,0.512,-129.089,60.852,76.721
0.578,0.124,0.456,-128.235,59.509,77.209
0.577,0.198,0.518,-124.756,54.138,75.5
0.557,0.224,0.629,-124.207,49.5,72.876
0.533,0.201,0.726,-129.333,46.57,69.824
0.501,0.176,0.793,-140.381,42.847,66.711
0.498,0.139,0.812,-157.41,36.438,63.232
0.489,0.096,0.822,-177.124,27.161,60.242
0.461,0.08,0.731,-198.181,20.081,58.411
0.438,0.032,0.748,-215.454,11.108,56.213
0.482,0.017,0.664,-221.619,10.071,57.739
0.491,0.032,0.589,-237.122,16.052,67.871
0.5,0.031,0.511,-249.573,21.057,82.397
0.481,0.055,0.45,-259.521,26.489,95.886
0.444,0.097,0.376,-273.499,32.837,110.779
0.387,0.13,0.313,-288.635,37.659,125.183
0.323,0.17,0.229,-304.565,41.443,135.376
0.25,0.189,0.178,-325.134,46.326,140.991
0.214,0.213,0.091,-340.759,51.819,140.076
0.18,0.217,0.001,-357.849,53.223,134.888
0.166,0.219,-0.139,-373.23,50.842,132.324
0.157,0.213,-0.327,-380.127,48.401,128.967
0.177,0.193,-0.499,-378.296,49.316,122.498
0.176,0.189,-0.74,-362.244,54.993,118.835
0.161,0.228,-0.952,-332.947,66.101,123.108
0.134,0.319,-1.069,-297.729,80.75,131.287
0.096,0.417,-1.073,-271.179,94.299,138.245
0.057,0.493,-1.032,-254.395,96.863,141.785
0.001,0.534,-0.987,-253.113,90.21,140.015
-0.06,0.549,-0.965,-265.564,77.576,134.216
-0.101,0.56,-0.954,-284.485,56.763,123.596
-0.122,0.545,-0.937,-308.594,28.748,108.582
-0.111,0.495,-0.916,-333.252,-0.122,89.844
-0.069,0.387,-0.96,-351.685,-24.17,69.702
-0.032,0.212,-1.027,-358.704,-38.696,55.847
0.022,0.071,-1.113,-342.285,-43.335,53.894
0.041,0.048,-1.169,-310.12,-33.386,60.181
0.016,0.108,-1.191,-278.87,-9.644,71.045
-0.034,0.176,-1.21,-255.554,21.179,79.773
-0.083,0.21,-1.241,-240.845,41.077,82.764
-0.128,0.235,-1.277,-232.788,42.48,79.529
-0.143,0.235,-1.292,-234.009,26.062,72.327
-0.145,0.221,-1.305,-241.15,-1.77,63.721
-0.135,0.176,-1.322,-251.953,-35.645,55.847
-0.131,0.136,-1.323,-262.512,-68.726,51.697
-0.134,0.083,-1.312,-268.921,-89.783,50.781
-0.135,0.08,-1.31,-263.977,-94.971,49.866
-0.161,0.048,-1.333,-245.117,-89.05,45.41
-0.166,0.046,-1.355,-226.929,-76.172,39.001
-0.155,0.012,-1.399,-213.928,-61.523,34.119
-0.152,-0.056,-1.448,-203.552,-48.218,31.006
-0.025,-0.11,-1.503,-194.519,-36.926,28.137
-0.256,-0.203,-1.664,-183.716,-21.973,29.175
-0.076,-0.129,-1.717,-171.204,-12.878,39.673
-0.072,-0.219,-1.964,-168.396,7.69,39.49
-0.106,-0.275,-2.062,-170.471,13.672,24.902
-0.099,-0.274,-2.189,-159.18,12.573,15.625
-0.01,-0.313,-2.215,-135.742,7.69,14.16
0.014,-0.36,-2.216,-110.229,2.258,1.221
0.028,-0.301,-2.158,-71.472,-2.014,3.784
0.041,-0.262,-2.057,-33.997,-6.897,5.066
0.033,-0.235,-1.922,-4.7,-15.564,0.244
0.055,-0.215,-1.763,17.151,-25.513,-7.141
0.096,-0.243,-1.614,33.569,-32.41,-16.052
0.146,-0.289,-1.463,44.922,-34.79,-21.362
0.173,-0.292,-1.318,52.246,-33.936,-19.226
0.196,-0.254,-1.195,58.533,-30.334,-14.526
0.204,-0.209,-1.086,62.378,-25.635,-13.367
0.202,-0.181,-0.995,61.89,-20.081,-15.076
0.215,-0.165,-0.915,59.082,-14.221,-17.273
0.224,-0.17,-0.861,56.458,-8.606,-19.043
0.225,-0.174,-0.822,53.162,-3.662,-19.226
0.23,-0.167,-0.795,50.903,0.366,-18.005
0.224,-0.151,-0.778,48.95,3.845,-15.625
0.218,-0.123,-0.767,47.424,6.165,-13.306
0.205,-0.096,-0.76,44.983,6.409,-11.78
0.194,-0.072,-0.756,41.748,4.883,-10.681
0.193,-0.058,-0.751,38.208,2.991,-10.315
0.186,-0.046,-0.747,34.302,0.854,-9.338
0.18,-0.04,-0.747,29.907,0.366,-7.568
0.166,-0.048,-0.764,25.635,0.793,-5.371
0.15,-0.052,-0.799,22.461,2.319,-3.052
0.139,-0.044,-0.842,19.592,5.432,-0.854
0.124,-0.028,-0.891,15.93,10.681,2.258
0.107,-0.011,-0.938,12.695,16.174,5.005
0.092,0.005,-0.986,10.315,20.447,6.287
0.074,0.009,-1.026,7.935,23.376,6.226
0.063,0.001,-1.059,6.531,24.292,5.859
0.053,-0.002,-1.077,7.019,22.583,5.615
0.045,0.003,-1.079,8.606,18.982,4.944
0.042,0.004,-1.069,9.033,15.137,3.296
0.046,-0.007,-1.054,7.751,10.986,1.77
0.056,-0.032,-1.037,6.287,7.141,1.038
0.058,-0.033,-1.02,5.31,5.615,1.831
0.061,-0.032,-1.006,4.395,6.592,3.113
0.057,-0.027,-0.992,4.517,8.362,2.869
0.063,-0.031,-0.985,5.005,9.888,1.343
0.073,-0.041,-0.972,4.333,9.827,0.671
0.08,-0.041,-0.961,3.235,7.751,1.77
0.091,-0.037,-0.937,1.404,5.127,4.15
0.088,-0.03,-0.92,-0.854,4.456,7.202
0.08,-0.014,-0.907,-3.052,5.554,9.46
0.072,-0.004,-0.886,-7.141,7.263,9.827
0.066,-0.014,-0.894,-11.414,8.667,9.033
0.07,-0.022,-0.915,-16.846,10.681,8.301
0.072,-0.03,-0.935,-22.461,13.306,8.301
0.072,-0.019,-0.97,-27.039,14.771,8.606
0.059,-0.043,-1.005,-31.067,15.564,10.071
0.061,-0.066,-1.027,-25.818,16.296,9.399
0.062,-0.053,-1.056,-18.921,18.86,6.958
0.088,-2.112,0.242,304.565,-36.499,-41.199
0.07,-1.994,0.182,328.674,-37.415,-33.63
0.054,-1.801,0.144,342.407,-37.17,-19.226
0.041,-1.607,0.068,349.426,-37.537,1.282
0.05,-1.459,-0.018,348.938,-38.086,22.583
0.094,-1.404,-0.063,344.177,-41.26,34.668
0.146,-1.413,-0.078,339.172,-47.668,33.386
0.192,-1.458,-0.062,335.205,-51.88,24.536
0.205,-1.458,0,336.609,-50.049,18.677
0.208,-1.39,-0.016,347.656,-42.175,15.686
0.23,-1.29,-0.113,358.643,-33.386,16.235
0.24,-1.173,-0.179,360.168,-24.841,17.334
0.283,-1.15,-0.196,354.431,-17.273,8.667
0.239,-1.209,-0.265,345.764,-8.728,-6.226
0.134,-1.258,-0.325,341.187,-2.625,-17.7
0.059,-1.211,-0.333,344.666,-5.798,-22.888
0,-1.048,-0.283,351.99,-18.066,-21.057
-0.025,-0.863,-0.214,360.352,-33.63,-15.503
-0.034,-0.686,-0.138,366.211,-47.302,-7.08
-0.021,-0.488,-0.045,366.638,-54.749,4.7
0.018,-0.346,-0.016,364.136,-56.396,19.958
0.031,-0.283,-0.048,358.276,-54.932,32.41
0.052,-0.275,-0.062,348.511,-54.993,33.02
0.087,-0.26,-0.023,336.304,-57.678,29.053
0.142,-0.206,0.016,326.843,-57.19,27.954
0.187,-0.134,0.01,321.045,-50.781,27.466
0.177,-0.035,0.024,314.819,-41.87,24.414
0.151,0.07,0.037,309.753,-36.743,16.479
0.123,0.197,0.032,304.382,-37.109,9.216
0.128,0.358,0.05,296.021,-40.894,9.399
0.135,0.534,0.085,282.104,-46.57,20.691
0.143,0.757,0.165,261.963,-52.917,40.527
0.19,1.016,0.29,238.037,-60.059,64.27
0.214,1.317,0.432,212.524,-64.758,88.318
0.214,1.67,0.585,183.838,-66.162,104.736
0.127,2.068,0.719,151.611,-64.209,109.924
0.059,2.454,0.789,117.432,-60.791,104.492
0.054,2.75,0.718,86.548,-59.143,88.379
0.099,2.89,0.531,51.697,-58.105,63.843
0.232,2.729,0.339,9.399,-52.979,39.246
0.361,2.382,0.192,-38.147,-39.368,25.818
0.423,2.016,0.071,-90.332,-17.029,19.104
0.473,1.578,-0.059,-137.451,8.362,6.47
0.46,1.101,-0.168,-173.645,30.396,-9.827
0.41,0.675,-0.26,-194.519,47.791,-23.193
0.349,0.37,-0.362,-199.646,60.181,-31.555
0.297,0.186,-0.458,-191.162,64.697,-36.682
0.281,0.142,-0.557,-174.011,61.096,-39.551
0.229,0.14,-0.648,-156.921,53.467,-40.039
0.177,0.273,-0.713,-150.33,47.363,-31.555
0.139,0.347,-0.7,-148.56,38.147,-23.926
0.134,0.381,-0.686,-148.437,26.55,-22.034
0.142,0.423,-0.664,-152.222,17.456,-16.541
0.167,0.45,-0.634,-157.41,11.597,-11.169
0.194,0.479,-0.591,-166.504,10.681,-6.165
0.216,0.498,-0.56,-179.993,15.076,-0.122
0.252,0.431,-0.547,-192.749,22.034,3.113
0.286,0.323,-0.504,-204.163,28.809,0.671
0.275,0.218,-0.451,-212.036,37.17,-7.141
0.247,0.134,-0.421,-213.074,45.471,-20.447
0.192,0.076,-0.434,-210.205,51.575,-35.706
0.127,0.04,-0.443,-208.252,54.321,-49.255
0.096,0.001,-0.425,-208.862,54.26,-57.983
0.086,-0.083,-0.402,-210.205,51.941,-61.646
0.073,-0.191,-0.396,-209.473,48.218,-62.866
0.071,-0.296,-0.392,-209.473,45.471,-65.674
0.121,-0.365,-0.378,-211.243,45.166,-66.101
0.151,-0.427,-0.406,-216.37,51.575,-60.73
0.14,-0.489,-0.426,-230.591,64.087,-52.612
0.103,-0.532,-0.414,-252.197,76.782,-45.593
0.049,-0.598,-0.393,-272.461,85.083,-39.673
-0.021,-0.625,-0.407,-290.161,88.562,-36.499
-0.043,-0.777,-0.303,-297.302,82.764,-39.246
-0.116,-0.832,-0.296,-295.41,77.087,-33.813
-0.152,-0.849,-0.309,-290.833,73.669,-22.339
-0.167,-0.824,-0.313,-286.865,64.636,-9.766
-0.157,-0.78,-0.273,-283.63,48.401,8.972
-0.122,-0.754,-0.215,-281.25,30.212,32.166
-0.062,-0.705,-0.152,-281.128,14.832,50.659
0.048,-0.687,-0.072,-284.119,3.052,58.899
0.16,-0.742,0.015,-293.762,-2.991,53.406
0.209,-0.962,0.097,-315.857,-1.343,28.32
0.231,-1.288,0.225,-343.079,7.629,-5.859
0.186,-1.605,0.356,-357.3,23.743,-41.504
0.076,-1.894,0.404,-348.45,46.143,-70.129
-0.053,-2.146,0.284,-312.988,67.017,-83.252
-0.175,-2.255,0.026,-264.526,75.928,-72.693
-0.26,-2.209,-0.196,-221.436,67.017,-43.518
-0.294,-2.087,-0.279,-193.115,46.387,-4.639
-0.27,-1.939,-0.275,-176.758,24.048,37.598
-0.23,-1.758,-0.275,-167.48,4.517,79.346
-0.173,-1.601,-0.266,-165.039,-12.024,113.953
-0.068,-1.481,-0.203,-169.434,-25.452,138.733
0.094,-1.427,-0.059,-175.232,-31.128,150.33
0.259,-1.424,0.088,-177.612,-24.597,141.357
0.287,-1.498,0.217,-176.453,-7.935,106.506
0.195,-1.599,0.316,-162.842,14.771,54.626
0.064,-1.65,0.299,-134.949,41.199,4.089
0.025,-1.75,0.126,-109.131,57.19,-33.569
0.008,-1.762,0.051,-88.989,39.001,-49.988
-0.008,-1.75,0.102,-69.153,1.404,-47.974
0.022,-1.677,0.164,-51.514,-21.423,-34.729
0.089,-1.586,0.185,-37.537,-25.818,-17.7
0.124,-1.486,0.202,-26.184,-29.48,-1.16
0.147,-1.399,0.217,-16.968,-33.691,14.832
0.189,-1.336,0.236,-10.803,-32.41,27.893
0.202,-1.294,0.253,-6.775,-25.208,36.682
0.205,-1.244,0.26,-2.014,-16.663,43.213
0.214,-1.176,0.224,5.493,-10.315,47.729
0.24,-1.095,0.176,13.611,-7.996,48.035
0.257,-1.018,0.143,18.25,-9.338,41.016
0.27,-0.971,0.134,19.287,-12.024,27.466
0.273,-0.95,0.134,18.127,-14.709,12.512
0.267,-0.941,0.151,15.442,-15.747,1.465
0.253,-0.937,0.183,14.221,-15.747,-2.991
0.245,-0.927,0.183,15.747,-13.489,-2.075
0.243,-0.905,0.165,17.883,-10.132,1.77
0.24,-0.882,0.147,17.09,-6.531,6.592
0.226,-0.866,0.145,14.832,-3.662,9.888
-0.191,2.08,1.055,148.499,-79.285,97.595
-0.268,2.513,1.117,107.605,-90.271,107.971
-0.21,2.813,1.028,64.026,-102.417,106.689
-0.063,2.907,0.83,17.09,-111.206,96.436
0.139,2.692,0.601,-33.386,-105.469,80.811
0.318,2.226,0.462,-83.862,-81.116,61.218
0.391,1.831,0.281,-124.146,-46.387,38.452
0.455,1.397,0.049,-152.405,-9.705,5.92
0.469,0.968,-0.148,-168.64,20.203,-29.175
0.421,0.647,-0.267,-177.185,44.128,-50.781
0.347,0.444,-0.391,-175.72,63.782,-60.669
0.28,0.349,-0.508,-167.419,72.021,-63.477
0.225,0.369,-0.591,-157.471,69.885,-59.814
0.188,0.435,-0.624,-151.001,62.378,-52.979
0.18,0.475,-0.646,-145.447,51.941,-45.349
0.177,0.554,-0.657,-144.104,41.687,-36.926
0.205,0.478,-0.67,-148.621,34.058,-28.992
0.236,0.593,-0.67,-164.307,32.532,-8.606
0.284,0.574,-0.607,-176.27,30.029,-4.944
0.322,0.48,-0.566,-188.843,34.851,-17.212
0.311,0.402,-0.538,-199.646,46.875,-27.893
0.281,0.34,-0.513,-207.031,57.8,-35.828
0.224,0.279,-0.5,-212.402,66.406,-43.091
0.176,0.239,-0.489,-217.59,71.594,-46.021
0.138,0.21,-0.481,-220.825,71.899,-44.373
0.108,0.172,-0.474,-224.792,69.214,-40.283
0.093,0.128,-0.469,-229.004,62.927,-34.668
0.123,0.07,-0.458,-234.68,54.382,-29.785
0.175,0.011,-0.445,-242.981,49.316,-26.184
0.227,-0.071,-0.427,-255.005,51.392,-25.33
0.248,-0.204,-0.409,-267.7,60.181,-27.832
0.209,-0.33,-0.396,-277.222,72.876,-34.607
0.144,-0.489,-0.39,-280.273,83.496,-45.837
0.064,-0.622,-0.42,-276.184,88.379,-57.739
0.013,-0.733,-0.414,-262.024,82.275,-65.063
-0.047,-0.737,-0.461,-244.995,77.026,-61.218
-0.056,-0.717,-0.513,-232.239,73.242,-51.88
-0.024,-0.683,-0.501,-226.44,63.599,-40.039
0.018,-0.706,-0.477,-225.83,52.368,-30.151
0.047,-0.786,-0.477,-234.497,48.462,-24.719
0.075,-0.892,-0.442,-252.014,51.575,-20.386
0.061,-0.998,-0.403,-267.639,59.143,-13.733
0.029,-1.072,-0.386,-274.719,65.735,-8.118
-0.01,-1.125,-0.376,-271.606,67.139,-5.188
-0.058,-1.148,-0.386,-260.315,65.125,-0.793
-0.108,-1.139,-0.382,-243.408,59.57,4.639
-0.145,-1.11,-0.399,-221.008,49.805,13
-0.131,-1.073,-0.407,-200.623,35.461,24.292
-0.068,-1.001,-0.376,-188.049,21.301,39.795
0.006,-0.96,-0.328,-185.852,13.428,52.307
0.074,-1.006,-0.282,-191.833,13.428,53.345
0.121,-1.099,-0.235,-201.05,17.334,45.898
0.125,-1.222,-0.21,-210.51,25.146,34.546
0.084,-1.335,-0.218,-217.712,36.316,23.315
0.017,-1.443,-0.229,-220.459,44.739,13
-0.044,-1.528,-0.247,-216.187,47.18,5.737
-0.107,-1.582,-0.263,-208.374,44.678,4.7
-0.116,-1.614,-0.238,-199.402,39.246,11.963
-0.114,-1.619,-0.189,-188.171,32.959,23.926
-0.104,-1.599,-0.142,-174.011,26.489,38.574
-0.086,-1.588,-0.105,-157.837,20.264,54.688
-0.078,-1.515,-0.095,-143.066,15.747,70.557
-0.059,-1.421,-0.08,-131.714,11.108,81.604
-0.04,-1.344,-0.061,-123.352,6.042,84.595
-0.002,-1.325,-0.068,-120.728,2.38,80.75
0.013,-1.32,-0.055,-121.826,1.282,68.787
0.026,-1.349,-0.007,-123.23,2.319,48.889
0.012,-1.46,0.059,-119.263,5.92,25.085
0.001,-1.555,0.044,-104.858,10.803,3.54
-0.029,-1.588,0,-85.693,10.559,-9.155
-0.022,-1.574,-0.024,-65.308,6.531,-11.536
0.021,-1.533,-0.021,-51.147,2.869,-9.949
0.056,-1.51,0.001,-43.091,1.465,-8.118
0.074,-1.463,0.022,-34.79,-2.014,-3.601
0.072,-1.407,0.012,-24.536,-9.399,3.601
0.095,-1.327,-0.002,-15.991,-18.066,14.893
0.123,-1.235,-0.009,-11.475,-24.719,25.146
0.159,-1.153,-0.008,-9.216,-28.32,28.809
0.192,-1.113,-0.005,-7.874,-30.396,26.306
0.208,-1.069,-0.002,-7.568,-30.823,23.376
0.221,-1.035,0.003,-7.751,-30.151,21.484
0.241,-1.019,0.02,-7.324,-27.893,18.982
0.267,-1.011,0.036,-5.676,-23.987,16.724
0.277,-1.002,0.051,-3.113,-18.616,14.038
0.272,-0.993,0.05,0.183,-12.695,11.597
0.257,-0.976,0.027,3.113,-7.996,10.315
0.24,-0.961,-0.001,4.883,-6.104,9.644
0.23,-0.951,-0.008,3.784,-6.653,9.705
