aX,aY,aZ,gX,gY,gZ
-0.124,-1.238,-1.46,113.281,11.108,91.98
-0.139,-1.21,-1.497,120.056,6.226,104.675
-0.11,-1.114,-1.552,119.812,6.592,118.225
-0.126,-1.083,-1.561,113.525,13.733,127.319
-0.137,-1.078,-1.516,101.318,21.973,128.967
-0.165,-1.006,-1.33,82.947,18.494,122.07
-0.236,-0.842,-1.024,66.956,7.141,110.046
-0.348,-0.632,-0.587,63.171,-6.104,92.651
-0.506,-0.42,-0.049,67.017,-18.433,70.068
-0.716,-0.104,0.561,73.364,-23.865,51.086
-0.927,0.303,1.095,89.05,-18.494,43.213
-1.166,0.852,1.443,110.107,-12.268,52.673
-1.425,1.458,1.621,129.333,-6.042,76.66
-1.578,2.089,1.697,144.592,5.493,109.985
-1.676,2.7,1.653,152.039,21.545,152.954
-1.704,3.227,1.544,157.532,41.748,205.261
-1.605,3.65,1.187,186.768,59.082,251.099
-1.045,3.852,0.461,229.126,64.88,291.443
-0.115,3.999,-0.253,255.432,60.486,334.9
0.797,4,-0.812,250.854,39.368,350.159
1.909,4,-1.467,222.778,16.968,325.562
2.747,4,-2.144,159.668,12.451,266.113
2.511,3.333,-2.318,71.899,17.517,144.104
1.752,2.568,-1.849,-28.015,-2.136,-40.649
0.828,2.336,-0.914,-136.902,-56.763,-218.628
-0.164,2.049,-0.013,-185.425,-129.517,-339.905
-0.901,1.601,0.526,-164.734,-182.129,-397.156
-1.167,1.146,0.67,-118.225,-183.472,-381.226
-1.157,0.843,0.56,-97.778,-123.169,-300.171
-0.988,0.825,0.422,-113.831,-23.01,-188.66
-0.73,0.953,0.345,-149.841,76.172,-86.243
-0.469,1.09,0.265,-176.758,140.564,-18.005
-0.246,1.206,0.198,-181.641,149.048,10.376
-0.112,1.226,0.129,-168.579,110.107,1.038
-0.046,1.152,0.038,-147.705,54.382,-31.616
-0.055,1.008,-0.044,-130.31,3.723,-70.618
-0.128,0.879,-0.09,-122.986,-33.63,-102.783
-0.2,0.754,-0.122,-119.507,-53.955,-122.253
-0.251,0.59,-0.151,-117.31,-57.129,-127.441
-0.258,0.487,-0.178,-115.845,-48.828,-116.089
-0.209,0.451,-0.208,-116.211,-34.363,-90.088
-0.135,0.445,-0.282,-114.685,-15.625,-59.692
-0.044,0.431,-0.399,-108.948,1.709,-35.095
0.021,0.396,-0.507,-101.074,11.719,-20.325
0.066,0.376,-0.589,-93.567,12.878,-15.93
0.12,0.37,-0.628,-86.914,4.333,-16.968
0.19,0.374,-0.659,-81.055,-6.042,-18.799
0.277,0.421,-0.725,-76.599,-12.268,-20.569
0.336,0.439,-0.792,-76.416,-13.489,-25.269
0.379,0.43,-0.883,-80.078,-11.292,-35.278
0.37,0.393,-0.907,-85.449,-10.437,-48.645
0.336,0.336,-0.894,-91.553,-11.597,-62.073
0.268,0.344,-0.888,-99.792,-16.418,-72.144
0.23,0.245,-0.776,-96.924,-26.489,-81.604
0.071,0.152,-0.678,-84.29,-31.372,-82.275
-0.039,-0.009,-0.744,-63.354,-25.696,-81.116
-0.009,-0.063,-0.762,-40.344,-24.719,-73.547
0.003,-0.037,-0.741,-12.756,-30.762,-60.181
-0.007,-0.137,-0.93,16.052,-21.851,-54.871
0.027,-0.158,-0.942,34.485,-17.761,-40.466
0.103,-0.075,-1.001,45.837,-13.611,-17.212
0.156,-0.065,-1.138,48.645,3.113,-2.502
0.18,-0.091,-1.206,42.603,18.738,0.793
0.193,-0.105,-1.241,33.691,23.437,-0.427
0.175,-0.104,-1.226,29.358,15.625,-1.648
0.139,-0.134,-1.22,35.095,0.854,-5.493
0.117,-0.158,-1.223,44.434,-15.564,-10.925
0.1,-0.153,-1.206,52.734,-29.419,-12.634
0.081,-0.131,-1.196,57.251,-34.607,-8.24
0.102,-0.092,-1.198,57.8,-28.87,0.793
0.142,-0.046,-1.21,53.955,-16.479,13.062
0.176,0.004,-1.224,47.18,-1.038,23.865
0.196,0.074,-1.229,39.368,13.55,31.006
0.218,0.145,-1.244,34.363,24.109,35.278
0.237,0.219,-1.257,32.959,28.32,38.269
0.258,0.279,-1.28,35.278,26.55,38.696
0.295,0.322,-1.306,39.551,21.179,36.621
0.331,0.363,-1.334,39.917,14.771,31.677
0.343,0.38,-1.344,35.461,10.559,22.766
0.345,0.382,-1.331,28.015,7.874,12.695
0.349,0.394,-1.293,18.86,4.639,5.188
0.345,0.404,-1.24,9.644,1.282,-0.305
0.333,0.409,-1.176,2.38,-0.671,-3.784
0.324,0.413,-1.121,-2.991,0.183,-6.47
0.311,0.398,-1.084,-6.47,3.418,-7.507
0.302,0.38,-1.058,-8.545,7.141,-7.446
0.296,0.374,-1.034,-11.292,9.583,-6.714
0.293,0.376,-1.017,-14.221,11.047,-5.92
0.294,0.382,-1.002,-16.785,12.329,-5.92
0.292,0.397,-0.985,-18.677,13.367,-6.775
0.293,0.411,-0.976,-19.409,13.428,-8.362
0.282,0.413,-0.974,-19.348,11.597,-9.583
0.273,0.396,-0.974,-18.188,8.24,-11.047
0.265,0.382,-0.973,-17.639,4.883,-13.855
0.257,0.372,-0.967,-17.334,1.648,-16.663
0.251,0.359,-0.958,-17.395,-0.916,-18.738
0.24,0.339,-0.945,-19.47,-2.502,-19.47
0.225,0.338,-0.924,-21.606,-3.845,-18.311
0.219,0.35,-0.901,-24.231,-3.479,-16.541
0.22,0.346,-0.896,-25.208,-2.136,-13.916
0.218,0.351,-0.881,-24.536,-0.366,-11.353
0.23,0.366,-0.877,-25.818,1.526,-10.193
0.234,0.39,-0.873,-26.062,2.136,-9.521
0.239,0.399,-0.879,-24.475,0.671,-8.484
0.253,0.393,-0.886,-21.606,-1.038,-7.935
0.27,0.39,-0.897,-19.714,-1.77,-8.728
0.282,0.393,-0.903,-19.836,-1.77,-9.827
0.285,0.4,-0.91,-20.63,-1.648,-10.62
0.284,0.407,-0.91,-22.339,-0.916,-11.169
0.285,0.409,-0.915,-22.766,0.671,-11.658
0.295,0.414,-0.932,-21.851,3.052,-11.963
0.293,0.436,-0.935,-21.606,5.554,-12.451
0.297,0.428,-0.962,-23.865,8.057,-13.184
0.289,0.428,-0.965,-24.475,8.24,-14.282
0.281,0.406,-0.978,-24.658,5.493,-15.625
0.265,0.383,-0.977,-23.437,0.793,-16.907
0.247,0.353,-0.966,-21.423,-3.784,-18.555
0.245,0.314,-0.959,-21.301,-6.958,-20.02
0.235,0.271,-0.945,-19.47,-9.399,-20.081
0.152,-1.209,-1.246,183.594,-30.273,114.014
0.144,-1.262,-1.154,181.335,-39.856,119.69
0.144,-1.33,-0.993,177.49,-40.771,125.305
0.117,-1.393,-0.757,171.814,-34.79,127.014
0.074,-1.283,-0.448,160.156,-22.766,120.239
-0.002,-1.119,-0.087,138.733,-5.676,111.633
-0.201,-0.842,0.447,111.877,22.4,98.389
-0.531,-0.384,1.075,86.182,49.805,77.82
-0.969,0.349,1.712,72.388,65.43,60.181
-1.538,1.222,2.271,82.214,72.144,48.157
-2.134,2.158,2.586,112.061,64.636,48.584
-2.643,3.093,2.616,135.742,53.345,79.346
-3.071,3.993,2.419,148.804,66.895,139.221
-3.047,4,1.723,167.786,115.295,234.253
-2.359,4,0.44,211.792,191.833,357.91
-0.773,4,-1.107,259.216,249.329,468.933
1.048,4,-2.443,269.958,221.313,508.728
3.343,4,-3.753,232.239,123.108,441.406
4,3.864,-3.849,105.896,-7.385,232.788
3.077,3.597,-2.15,-100.586,-139.221,-99.915
1.117,3.243,0.048,-248.718,-239.685,-404.358
-0.948,2.472,1.49,-232.3,-328.735,-593.994
-2.059,1.361,1.726,-93.75,-365.54,-648.987
-2.182,0.534,1.089,16.541,-273.865,-529.358
-2.129,0.369,0.496,-10.803,-77.576,-302.612
-1.554,0.614,0.206,-112.549,127.319,-75.684
-0.964,0.959,0.214,-200.439,252.319,80.872
-0.477,1.298,0.337,-229.675,261.841,139.343
-0.224,1.429,0.392,-200.623,182.556,121.46
-0.185,1.362,0.339,-143.738,76.538,62.378
-0.2,1.256,0.21,-99.365,-11.597,-5.615
-0.177,1.124,0.023,-81.604,-60.303,-61.462
-0.246,0.92,-0.115,-85.51,-68.481,-98.999
-0.349,0.731,-0.156,-99.304,-57.617,-119.751
-0.369,0.612,-0.132,-114.99,-48.096,-118.896
-0.284,0.527,-0.134,-124.084,-39.49,-97.534
-0.16,0.478,-0.17,-127.502,-26.428,-68.665
-0.062,0.483,-0.209,-126.587,-11.414,-45.776
-0.021,0.502,-0.26,-121.338,-0.549,-31.555
0.018,0.53,-0.307,-109.009,1.892,-26.062
0.137,0.547,-0.381,-96.13,-1.648,-25.696
0.239,0.563,-0.485,-84.167,-3.54,-30.457
0.283,0.524,-0.6,-80.994,-0.793,-42.664
0.299,0.45,-0.706,-82.52,2.747,-58.655
0.281,0.38,-0.755,-87.891,1.77,-72.388
0.238,0.312,-0.739,-91.248,-4.639,-80.505
0.192,0.224,-0.727,-89.783,-15.015,-83.557
0.161,0.193,-0.656,-84.717,-24.048,-84.595
0.144,0.137,-0.605,-73.73,-27.283,-86.853
0.1,0.079,-0.592,-59.937,-26.978,-84.656
0.042,-0.002,-0.632,-43.091,-24.78,-81.421
-0.015,-0.084,-0.68,-25.146,-23.804,-76.782
-0.007,-0.116,-0.752,-9.827,-25.696,-67.2
0.011,-0.102,-0.834,1.038,-26.794,-54.749
0.012,-0.103,-0.984,11.963,-28.015,-43.64
0.021,-0.088,-1.042,23.682,-24.536,-32.043
0.013,-0.109,-1.059,39.063,-22.644,-23.865
0.038,-0.137,-1.148,45.227,-3.967,-19.348
0.109,-0.092,-1.167,42.969,4.333,-14.038
0.15,-0.044,-1.163,38.33,6.287,-5.432
0.21,-0.013,-1.135,38.94,-0.183,1.465
0.239,-0.016,-1.13,38.635,-7.568,0.732
0.216,-0.048,-1.131,40.527,-14.832,-5.92
0.217,-0.047,-1.109,41.443,-25.208,-8.484
0.226,0.006,-1.088,43.64,-34.18,-1.709
0.278,0.065,-1.082,46.997,-34.912,10.254
0.353,0.148,-1.098,47.668,-24.414,22.156
0.406,0.269,-1.156,43.274,-4.822,31.25
0.406,0.348,-1.225,39.429,18.127,33.386
0.388,0.411,-1.278,39.063,35.4,30.273
0.376,0.423,-1.354,42.419,41.931,25.085
0.342,0.451,-1.413,47.485,37.415,17.456
0.296,0.461,-1.439,49.622,25.757,7.08
0.267,0.459,-1.423,49.622,12.085,-1.953
0.256,0.448,-1.397,47.363,1.831,-5.432
0.257,0.439,-1.359,40.222,-1.465,-4.272
0.267,0.435,-1.308,28.809,2.136,-1.16
0.284,0.431,-1.251,16.113,10.559,4.333
0.308,0.436,-1.202,5.493,19.348,11.047
0.326,0.465,-1.169,-1.465,25.818,16.357
0.341,0.496,-1.154,-3.967,28.748,18.066
0.345,0.51,-1.166,-2.808,28.076,15.015
0.334,0.503,-1.183,-0.549,24.109,8.301
0.32,0.486,-1.191,0.488,16.479,1.16
0.31,0.474,-1.186,-1.526,7.874,-3.784
0.298,0.464,-1.159,-5.188,0.549,-7.019
0.292,0.451,-1.124,-10.071,-3.601,-8.423
0.293,0.439,-1.094,-15.93,-4.272,-7.996
0.295,0.427,-1.07,-22.095,-2.563,-6.47
0.293,0.42,-1.044,-27.954,-0.977,-5.249
0.293,0.427,-1.015,-32.471,-1.099,-5.31
0.292,0.44,-0.991,-34.546,-2.38,-6.47
0.287,0.45,-0.963,-34.119,-4.517,-9.155
0.281,0.451,-0.94,-31.921,-6.653,-12.024
0.277,0.449,-0.93,-30.029,-8.057,-13.733
0.274,0.449,-0.93,-28.687,-8.606,-13.611
0.271,0.453,-0.927,-28.87,-8.362,-12.817
0.27,0.46,-0.918,-30.273,-6.958,-11.902
0.276,0.46,-0.911,-31.372,-5.493,-10.925
0.282,0.461,-0.909,-32.959,-4.272,-10.559
0.28,0.456,-0.906,-35.034,-3.174,-11.597
0.28,0.448,-0.894,-36.926,-2.441,-13.306
0.276,0.445,-0.877,-37.781,-2.319,-14.221
0.28,0.443,-0.864,-37.476,-2.625,-14.343
0.292,0.447,-0.861,-36.743,-2.197,-14.771
0.304,0.452,-0.873,-35.828,-0.244,-15.808
0.314,0.451,-0.901,-35.095,3.357,-17.578
0.315,0.445,-0.927,-35.034,6.836,-19.409
0.309,0.43,-0.941,-34.912,8.179,-21.667
0.298,0.399,-0.955,-34.241,7.996,-23.926
0.285,0.368,-0.963,-33.325,6.531,-25.757
0.271,0.331,-0.97,-32.471,4.7,-26.855
0.256,0.294,-0.974,-32.532,3.418,-27.161
0.245,0.253,-0.973,-32.776,3.54,-26.794
0.24,0.198,-0.978,-31.494,4.211,-25.269
0.232,0.138,-0.985,-29.419,4.578,-23.254
0.222,0.074,-1.004,-27.283,4.028,-22.217
0.202,0.005,-1.042,-23.682,2.319,-21.973
0.172,-0.061,-1.077,-21.606,0,-23.254
-0.133,-1.109,-1.568,37.109,-2.502,24.17
-0.184,-1.202,-1.572,55.908,-9.705,42.297
-0.197,-1.264,-1.558,78.308,-21.79,64.331
-0.196,-1.238,-1.507,94.604,-32.288,87.83
-0.165,-1.218,-1.463,108.643,-38.086,111.084
-0.093,-1.183,-1.464,118.103,-38.452,134.949
-0.025,-1.131,-1.472,119.141,-31.433,158.325
-0.013,-1.079,-1.413,115.051,-19.775,174.805
-0.004,-1.054,-1.286,114.502,-14.465,181.396
0.016,-1.061,-1.087,119.08,-22.156,179.565
0.013,-1.057,-0.765,124.695,-41.382,170.349
-0.012,-1.033,-0.329,127.991,-64.087,154.175
-0.075,-0.929,0.226,132.751,-81.238,136.963
-0.228,-0.67,0.865,133.789,-82.153,124.023
-0.55,-0.255,1.599,135.559,-65.308,117.554
-0.981,0.356,2.368,154.541,-42.603,119.873
-1.423,1.074,2.95,205.505,-28.259,136.841
-1.866,1.938,3.233,263.489,-14.16,166.504
-2.299,2.943,3.281,298.523,11.536,207.886
-2.691,3.901,3.097,313.477,51.086,261.536
-2.865,4,2.35,323.853,104.614,332.947
-2.361,4,1.085,329.224,178.894,426.025
-1.429,4,-0.228,301.636,260.681,527.405
0.103,4,-1.74,269.104,283.569,557.739
2.535,4,-3.922,226.685,232.422,501.16
3.738,3.808,-4,114.99,94.971,309.814
3.157,3.806,-2.869,-137.573,-92.468,1.465
1.526,3.681,-0.228,-344.727,-219.177,-302.185
-0.497,3.052,2.073,-391.724,-312.439,-538.94
-1.852,2.015,2.791,-248.474,-378.174,-691.406
-2.218,0.859,2.142,-49.561,-342.896,-675.415
-2.197,0.454,1.172,4.578,-190.674,-500.977
-1.981,0.616,0.646,-80.933,15.076,-255.127
-1.485,0.849,0.513,-195.984,196.472,-37.72
-0.912,1.143,0.518,-279.358,288.574,98.083
-0.451,1.383,0.568,-299.011,267.639,143.494
-0.188,1.453,0.568,-261.597,165.1,107.239
-0.09,1.405,0.505,-201.294,47.363,16.602
-0.147,1.254,0.372,-147.644,-39.49,-85.327
-0.339,1.021,0.246,-114.502,-87.097,-166.199
-0.512,0.798,0.171,-99.243,-104.187,-210.999
-0.599,0.593,0.123,-99.548,-97.351,-217.102
-0.592,0.378,0.068,-108.154,-71.899,-193.848
-0.512,0.207,0.001,-117.676,-37.415,-156.128
-0.405,0.111,-0.086,-122.681,-6.714,-117.004
-0.301,0.037,-0.213,-119.324,12.878,-84.106
-0.19,-0.011,-0.335,-107.239,20.081,-61.89
-0.098,0.01,-0.424,-91.125,16.663,-50.537
-0.008,0.045,-0.506,-72.327,6.897,-46.265
0.049,0.081,-0.592,-54.504,-2.93,-48.279
0.123,0.116,-0.683,-44.006,-9.155,-54.688
0.136,0.105,-0.763,-40.71,-12.512,-62.866
0.134,0.073,-0.813,-41.199,-17.578,-70.435
0.158,0.007,-0.827,-43.396,-25.696,-73.73
0.146,-0.055,-0.82,-43.152,-32.776,-73.792
0.167,-0.095,-0.791,-44.434,-38.391,-69.519
0.171,-0.148,-0.745,-40.955,-38.757,-61.584
0.193,-0.168,-0.702,-33.447,-35.828,-51.88
0.227,-0.172,-0.667,-20.691,-32.288,-41.199
0.24,-0.182,-0.679,-2.136,-26.978,-31.799
0.228,-0.187,-0.738,19.287,-20.447,-24.597
0.244,-0.149,-0.806,39.795,-15.625,-16.113
0.33,-0.06,-0.878,56.702,-13.123,-7.324
0.339,-0.022,-1.07,62.317,-6.531,-3.723
0.384,0.055,-1.06,62.256,-7.324,-6.775
0.378,0.064,-1.053,70.129,-12.634,-4.211
0.383,0.066,-1.086,84.412,-13.672,-1.709
0.357,0.09,-1.091,81.787,-4.639,-0.366
0.352,0.121,-1.071,76.66,3.906,0
0.33,0.148,-1.035,76.843,13.794,6.287
0.318,0.197,-1.046,81.238,18.25,16.602
0.332,0.264,-1.095,88.379,20.752,23.926
0.331,0.327,-1.161,95.52,22.156,28.442
0.314,0.401,-1.217,99.182,22.278,31.494
0.288,0.474,-1.266,98.633,22.827,33.081
0.254,0.523,-1.307,95.276,25.94,33.02
0.228,0.557,-1.342,89.6,29.053,32.715
0.207,0.585,-1.37,82.153,31.921,31.982
0.212,0.617,-1.38,71.838,34.302,31.677
0.214,0.623,-1.363,60.547,34.912,32.654
0.222,0.631,-1.326,49.011,34.241,33.997
0.24,0.665,-1.273,37.781,33.508,33.813
0.263,0.689,-1.23,30.64,32.349,34.058
0.27,0.688,-1.205,27.161,30.884,33.691
0.277,0.685,-1.192,24.109,27.649,31.372
0.283,0.701,-1.187,20.081,23.193,29.114
0.282,0.704,-1.184,16.907,18.066,27.588
0.292,0.687,-1.171,13.428,12.451,25.024
0.306,0.68,-1.145,8.301,7.385,22.034
0.32,0.683,-1.117,1.953,2.869,18.677
0.33,0.674,-1.082,-3.601,-0.183,15.503
0.336,0.658,-1.042,-8.057,-2.625,12.451
0.345,0.645,-1.006,-11.902,-4.822,10.01
0.354,0.641,-0.968,-14.465,-6.714,8.362
0.366,0.642,-0.943,-15.808,-7.996,6.775
0.363,0.638,-0.932,-16.968,-7.751,3.967
0.344,0.63,-0.929,-18.494,-6.897,-0.244
0.325,0.627,-0.927,-20.874,-6.775,-3.784
0.302,0.625,-0.909,-23.743,-8.057,-6.714
0.292,0.615,-0.882,-26.001,-9.583,-9.033
0.281,0.598,-0.858,-27.893,-10.376,-9.888
0.271,0.599,-0.838,-29.785,-10.864,-9.949
0.264,0.607,-0.815,-31.677,-10.559,-9.827
0.256,0.609,-0.782,-32.104,-9.216,-9.277
0.262,0.592,-0.766,-29.724,-7.69,-7.812
0.272,0.589,-0.771,-27.344,-5.737,-5.798
0.291,0.606,-0.795,-27.222,-3.357,-5.31
0.297,0.613,-0.823,-28.625,-0.61,-7.141
0.291,0.615,-0.844,-30.64,2.136,-10.62
0.294,0.608,-0.86,-32.41,2.563,-14.16
0.289,0.594,-0.868,-33.875,2.197,-16.907
0.287,0.577,-0.871,-34.912,1.282,-19.043
0.282,0.556,-0.872,-36.255,0.977,-20.813
0.27,0.538,-0.857,-36.865,1.465,-22.034
0.269,0.513,-0.857,-35.583,2.075,-22.339
0.273,0.487,-0.884,-33.508,3.357,-21.118
0.263,0.478,-0.93,-33.63,6.165,-19.775
0.251,0.487,-0.975,-35.889,8.789,-18.188
0.257,0.481,-1.017,-37.048,10.132,-15.625
-1.063,0.875,2.337,126.831,10.254,106.201
-1.561,1.682,2.773,157.288,24.048,108.521
-2.072,2.519,3.09,194.763,33.142,121.094
-2.507,3.341,3.179,234.802,40.955,162.109
-2.767,3.995,2.636,279.48,64.697,236.389
-2.449,4,1.464,312.744,123.657,337.646
-1.723,4,0.072,312.622,205.261,454.529
-0.352,4,-1.222,282.776,250.305,534.912
1.211,4,-2.434,249.512,213.257,509.705
2.609,4,-3.304,174.072,112.244,370.667
3.063,3.801,-2.911,34.607,-26.001,146.545
2.38,3.333,-1.392,-142.7,-138.062,-98.694
0.989,2.879,0.442,-262.939,-200.867,-330.811
-0.602,2.293,1.719,-264.465,-246.765,-512.756
-1.692,1.474,1.935,-152.344,-267.212,-583.069
-2.091,0.775,1.383,-42.175,-222.229,-512.39
-2.002,0.509,0.8,-39.246,-100.586,-349.67
-1.701,0.613,0.558,-123.535,55.054,-157.532
-1.272,0.829,0.552,-211.243,178.04,-1.526
-0.783,1.037,0.555,-253.113,215.942,87.708
-0.384,1.152,0.516,-243.713,170.776,106.812
-0.146,1.165,0.442,-206.36,90.088,67.2
-0.041,1.102,0.341,-160.156,13.062,-5.005
-0.07,0.978,0.202,-122.742,-39.246,-81.787
-0.21,0.807,0.078,-102.295,-63.721,-142.395
-0.33,0.625,0.003,-95.459,-69.336,-175.598
-0.388,0.453,-0.015,-95.52,-65.063,-179.749
-0.344,0.316,-0.03,-99.548,-51.758,-161.499
-0.295,0.202,-0.079,-104.248,-28.198,-131.897
-0.191,0.141,-0.169,-104.065,-2.93,-101.074
-0.043,0.137,-0.295,-99.243,17.7,-72.021
0.107,0.176,-0.454,-94.727,34.973,-48.035
0.209,0.234,-0.605,-93.811,49.805,-34.058
0.236,0.299,-0.709,-94.299,56.641,-32.471
0.257,0.348,-0.785,-89.722,49.683,-40.527
0.247,0.352,-0.859,-80.261,32.593,-54.932
0.172,0.326,-0.898,-73.181,13.733,-74.89
0.13,0.289,-0.895,-70.984,-6.653,-93.14
0.107,0.243,-0.847,-72.021,-26.428,-101.868
0.078,0.177,-0.781,-72.51,-39.978,-102.6
0.086,0.111,-0.71,-71.045,-45.715,-98.511
0.075,0.074,-0.653,-66.345,-42.969,-92.773
0.055,0.052,-0.633,-58.716,-32.715,-85.999
-0.01,-0.004,-0.657,-45.166,-20.142,-76.538
0.005,-0.027,-0.677,-26.855,-10.498,-62.012
-0.042,-0.034,-0.705,-4.211,-5.31,-42.542
0.005,0.026,-0.885,14.038,2.197,-26.123
0.152,0.108,-0.83,31.738,-3.967,-12.329
0.143,0.052,-0.937,43.335,-2.38,-1.953
0.149,0.012,-0.988,39.063,9.155,-1.831
0.201,0.03,-1.005,27.954,12.085,-11.597
0.237,0.042,-0.951,19.653,7.751,-11.719
0.255,0.025,-0.904,17.517,-2.686,-6.165
0.25,0.013,-0.883,18.433,-11.047,-3.174
0.244,0.049,-0.882,23.926,-15.32,-3.54
0.2,0.129,-0.88,26.428,-17.151,-2.686
0.193,0.221,-0.884,35.217,-16.052,1.892
0.169,0.278,-0.914,54.321,-11.414,11.353
0.152,0.341,-0.977,75.867,-5.005,22.827
0.16,0.356,-1.095,96.375,2.319,32.959
0.184,0.426,-1.243,100.708,12.085,39.795
0.216,0.5,-1.379,100.769,20.325,42.358
0.205,0.522,-1.498,88.806,26.917,40.222
0.209,0.537,-1.542,75.439,26.245,34.729
0.224,0.557,-1.534,61.157,18.738,29.297
0.225,0.591,-1.496,50.537,9.155,25.146
0.214,0.612,-1.457,44.678,2.075,22.461
0.216,0.624,-1.412,43.457,-0.916,21.545
0.248,0.621,-1.412,46.204,-1.282,24.963
0.273,0.614,-1.414,44.556,3.052,30.64
0.298,0.612,-1.398,37.842,7.08,35.767
0.328,0.602,-1.364,30.945,7.751,38.818
0.364,0.595,-1.328,24.719,5.371,39.185
0.4,0.589,-1.296,18.494,1.709,36.682
0.425,0.58,-1.265,11.658,-2.197,31.128
0.416,0.571,-1.217,3.601,-6.531,23.56
0.388,0.558,-1.155,-4.028,-10.803,15.32
0.371,0.551,-1.095,-8.667,-14.221,9.399
0.36,0.552,-1.039,-11.108,-15.93,6.409
0.351,0.546,-0.994,-13.123,-15.259,4.456
0.344,0.541,-0.962,-14.282,-11.78,3.296
0.335,0.542,-0.932,-15.625,-7.629,2.991
0.331,0.557,-0.915,-16.479,-4.761,3.54
0.326,0.567,-0.914,-16.235,-3.357,4.211
0.328,0.565,-0.914,-17.09,-3.723,4.822
0.33,0.591,-0.903,-19.043,-5.798,5.066
0.339,0.612,-0.888,-21.301,-8.728,3.601
0.333,0.606,-0.868,-23.804,-11.475,0.366
0.334,0.605,-0.846,-25.94,-14.038,-2.869
0.33,0.602,-0.815,-29.114,-16.174,-6.104
0.33,0.595,-0.789,-31.921,-17.883,-8.728
0.328,0.587,-0.77,-33.691,-18.066,-10.315
0.322,0.585,-0.746,-32.532,-17.334,-11.23
0.323,0.573,-0.728,-30.029,-16.663,-12.817
0.319,0.573,-0.714,-26.489,-15.869,-14.526
0.324,0.583,-0.713,-23.437,-13.489,-16.479
0.32,0.577,-0.729,-20.142,-10.315,-17.578
0.309,0.552,-0.745,-18.066,-6.592,-18.25
0.298,0.541,-0.748,-15.747,-4.089,-19.226
0.297,0.543,-0.749,-14.343,-2.808,-19.714
0.291,0.548,-0.752,-12.268,-2.136,-19.47
0.283,0.522,-0.767,-7.874,-1.953,-18.127
0.272,0.529,-0.775,0.854,-3.54,-16.479
0.299,0.525,-0.791,7.874,-6.836,-16.235
0.3,0.507,-0.808,16.846,-10.986,-16.174
0.306,0.515,-0.821,27.283,-14.099,-17.822
0.328,0.509,-0.854,32.104,-13.611,-18.616
0.329,0.514,-0.885,33.691,-10.254,-17.517
0.356,0.513,-0.919,36.011,-4.7,-15.93
0.389,0.494,-0.988,36.743,0.061,-14.404
0.412,0.506,-1.042,29.968,6.226,-16.296
0.414,0.54,-1.071,18.738,12.329,-19.348
0.404,0.536,-1.11,13.062,15.259,-22.217
0.4,0.542,-1.126,13,14.648,-25.085
0.416,0.475,-1.175,17.761,10.254,-28.564
0.412,0.404,-1.271,11.292,8.423,-35.583
0.386,0.434,-1.307,-9.094,10.742,-44.128
0.33,0.359,-1.352,-31.006,13.428,-47.668
0.313,0.265,-1.35,-46.814,16.541,-49.316
-1.329,0.28,2.079,171.753,-53.406,125.916
-1.604,1.181,2.726,219.177,-48.645,154.846
-1.831,2.115,3.099,275.635,-41.138,203.613
-2.063,3.06,3.307,314.026,-11.841,268.25
-2.264,3.998,3.264,339.172,24.78,344.849
-2.177,4,2.529,358.154,81.726,430.542
-1.572,4,1.019,361.328,171.692,523.437
-0.434,4,-0.664,331.055,258.484,609.497
0.831,4,-2.196,281.921,270.081,600.891
2.698,4,-3.706,224.06,200.256,481.079
3.558,3.994,-3.635,101.685,44.373,241.699
2.8,3.701,-1.624,-128.906,-119.69,-71.716
1.119,3.05,0.821,-286.926,-207.092,-348.816
-0.57,2.229,2.487,-277.344,-237.427,-552.917
-1.615,1.232,2.617,-137.695,-230.53,-635.681
-2.037,0.519,1.67,-3.174,-168.884,-549.927
-2.022,0.428,0.729,6.958,-37.292,-365.479
-1.738,0.582,0.325,-84.351,116.394,-159.79
-1.316,0.804,0.402,-186.462,220.581,0.854
-0.859,1.05,0.599,-240.54,235.046,87.036
-0.498,1.18,0.743,-234.436,174.438,95.703
-0.291,1.151,0.753,-192.017,90.698,40.1
-0.257,1.025,0.654,-142.456,18.555,-40.588
-0.359,0.855,0.524,-100.403,-32.288,-113.098
-0.456,0.71,0.355,-72.632,-58.899,-159.485
-0.494,0.582,0.194,-67.505,-56.763,-176.392
-0.534,0.424,0.088,-76.355,-33.63,-170.044
-0.526,0.283,0.026,-88.074,-7.141,-151.489
-0.446,0.162,-0.039,-94.238,9.705,-126.77
-0.33,0.106,-0.118,-90.027,17.761,-100.342
-0.185,0.091,-0.249,-77.576,24.475,-79.468
-0.084,0.089,-0.413,-64.392,34.302,-66.589
0.005,0.13,-0.576,-54.382,41.138,-60.608
0.052,0.181,-0.732,-49.011,40.283,-59.753
0.069,0.253,-0.848,-48.035,33.752,-64.087
0.06,0.307,-0.923,-52.49,23.987,-72.021
0.025,0.339,-0.962,-59.937,11.047,-80.2
-0.02,0.33,-0.972,-66.833,-5.066,-86.548
-0.061,0.307,-0.952,-69.641,-23.376,-88.623
-0.078,0.282,-0.895,-65.063,-40.283,-84.961
-0.06,0.224,-0.846,-50.293,-50.293,-76.538
-0.023,0.127,-0.829,-31.921,-52.063,-65.125
0.012,0.072,-0.826,-16.724,-48.34,-57.861
0.051,0.066,-0.837,-4.822,-41.931,-51.331
0.088,0.066,-0.873,4.639,-34.607,-39.917
0.118,0.065,-0.924,10.925,-28.564,-23.743
0.173,0.098,-0.94,13.611,-24.414,-12.756
0.201,0.121,-1.056,14.832,-14.709,-9.216
0.228,0.164,-0.977,18.127,-17.151,-8.545
0.266,0.201,-0.928,35.583,-37.903,3.601
0.293,0.217,-0.945,54.688,-36.255,12.634
0.33,0.251,-1.007,55.359,-18.25,7.507
0.309,0.299,-1.016,51.331,0.183,4.944
0.302,0.343,-1.02,50.72,2.869,11.353
0.313,0.387,-1.027,55.725,-1.099,18.921
0.33,0.418,-1.048,63.782,-4.517,21.973
0.343,0.462,-1.095,72.021,-8.484,21.79
0.344,0.511,-1.149,77.759,-11.902,22.4
0.344,0.546,-1.208,80.261,-12.573,23.926
0.342,0.547,-1.257,78.491,-8.911,24.597
0.35,0.559,-1.274,71.838,-2.869,25.635
0.36,0.577,-1.269,62.195,3.052,28.87
0.362,0.593,-1.256,52.917,9.521,31.921
0.359,0.602,-1.249,44.678,16.541,33.02
0.349,0.624,-1.232,37.842,21.667,32.41
0.345,0.638,-1.212,33.997,23.437,31.433
0.352,0.644,-1.197,32.593,21.912,29.846
0.365,0.651,-1.177,31.433,18.921,27.954
0.372,0.663,-1.166,29.114,15.93,25.879
0.38,0.669,-1.156,25.635,13.55,24.658
0.387,0.677,-1.143,21.118,11.658,23.682
0.393,0.679,-1.115,15.686,10.071,21.79
0.388,0.67,-1.088,10.315,8.24,18.25
0.384,0.662,-1.05,5.493,5.615,13.916
0.377,0.656,-1.007,1.77,2.38,9.521
0.367,0.648,-0.972,-1.404,-0.488,5.31
0.349,0.623,-0.944,-4.456,-1.831,1.343
0.318,0.61,-0.908,-7.385,-3.296,-1.77
0.284,0.607,-0.87,-8.972,-6.226,-4.211
0.261,0.596,-0.857,-8.972,-8.606,-5.981
0.236,0.585,-0.855,-10.498,-9.216,-6.531
0.221,0.581,-0.841,-13.733,-9.644,-6.104
0.211,0.591,-0.804,-16.541,-10.803,-5.188
0.22,0.596,-0.776,-16.235,-12.878,-3.723
0.224,0.599,-0.769,-15.137,-13.611,-2.136
0.234,0.612,-0.763,-15.93,-12.878,-0.366
0.241,0.62,-0.753,-16.724,-12.268,1.587
0.25,0.629,-0.733,-17.09,-12.695,2.014
0.273,0.654,-0.728,-17.517,-13.733,1.465
0.282,0.656,-0.737,-18.555,-12.878,0.061
0.286,0.653,-0.737,-20.325,-11.292,-1.587
0.294,0.642,-0.723,-22.583,-11.108,-3.052
0.3,0.62,-0.699,-23.01,-12.085,-4.944
0.304,0.579,-0.675,-21.973,-13.367,-7.446
0.303,0.537,-0.653,-20.508,-14.587,-10.62
0.296,0.505,-0.622,-17.273,-15.747,-13.489
0.286,0.47,-0.595,-12.085,-16.479,-15.503
0.272,0.428,-0.597,-5.432,-15.32,-15.686
0.258,0.412,-0.62,0.122,-11.597,-13.428
0.259,0.419,-0.652,3.601,-5.859,-8.85
0.268,0.448,-0.691,6.348,0.671,-3.174
0.294,0.499,-0.749,8.057,9.338,2.197
0.328,0.561,-0.821,8.057,19.47,6.47
0.346,0.612,-0.899,6.531,29.175,8.85
0.354,0.664,-0.977,4.333,36.011,8.911
0.364,0.706,-1.054,2.136,38.574,7.996
0.383,0.728,-1.122,0.916,36.987,6.226
0.395,0.742,-1.189,-1.221,32.715,3.174
0.387,0.77,-1.236,-4.944,28.564,-1.038
0.384,0.767,-1.273,-8.362,24.963,-5.066
0.383,0.747,-1.3,-11.23,20.569,-8.606
0.362,0.731,-1.323,-14.893,16.174,-12.207
0.345,0.711,-1.337,-19.287,12.939,-15.564
0.336,0.68,-1.355,-24.048,11.292,-16.724
0.325,0.643,-1.366,-30.579,12.024,-15.808
0.31,0.591,-1.367,-37.17,14.282,-14.099
0.288,0.54,-1.368,-41.565,16.357,-10.925
0.261,0.49,-1.384,-43.213,17.029,-7.019
0.242,0.442,-1.414,-45.044,17.822,-2.93
-0.208,-1.199,-1.303,-3.601,-42.114,15.198
-0.312,-1.252,-1.219,7.446,-40.771,42.969
-0.378,-1.301,-1.112,17.944,-37.781,74.951
-0.412,-1.361,-0.972,29.602,-35.767,106.812
-0.432,-1.369,-0.78,39.856,-36.255,132.141
-0.421,-1.282,-0.571,47.974,-38.574,149.658
-0.421,-1.133,-0.329,51.819,-39.917,158.264
-0.494,-0.915,0.021,51.819,-39.978,156.494
-0.639,-0.582,0.553,54.321,-44.067,147.522
-0.807,-0.137,1.169,70.496,-54.443,139.648
-0.979,0.432,1.67,104.431,-65.796,141.724
-1.234,1.087,2.049,142.395,-67.505,151.55
-1.556,1.842,2.361,175.354,-58.96,170.898
-1.836,2.59,2.568,201.843,-41.748,207.336
-2.029,3.339,2.641,222.473,-12.268,257.874
-2.052,3.974,2.38,247.131,29.663,318.909
-1.629,4,1.474,281.128,87.708,390.991
-0.75,4,0.215,294.128,158.997,470.276
0.282,4,-0.945,261.353,204.956,512.939
1.56,4,-1.942,209.717,200.5,465.027
2.567,4,-2.811,148.193,160.4,349.731
2.622,3.474,-2.68,51.819,62.744,145.325
1.776,3.151,-1.483,-103.149,-59.448,-104.736
0.504,2.622,0.058,-211.609,-162.659,-305.725
-0.652,1.951,1.268,-210.937,-235.107,-445.618
-1.353,1.263,1.722,-132.08,-254.822,-516.724
-1.603,0.675,1.458,-48.157,-200.5,-472.412
-1.602,0.418,0.955,-32.104,-77.881,-337.708
-1.444,0.527,0.603,-88.867,68.604,-178.711
-1.146,0.743,0.486,-166.016,184.753,-40.894
-0.804,0.975,0.472,-214.111,232.849,46.997
-0.473,1.15,0.483,-221.619,208.496,72.205
-0.234,1.223,0.451,-198.059,142.212,40.344
-0.149,1.202,0.383,-160.4,69.458,-26.123
-0.214,1.109,0.29,-124.573,9.216,-101.685
-0.362,0.948,0.199,-98.511,-30.945,-163.513
-0.476,0.771,0.131,-85.022,-50.171,-197.998
-0.513,0.603,0.09,-82.336,-51.27,-201.904
-0.487,0.45,0.039,-84.351,-38.269,-183.472
-0.388,0.321,-0.053,-87.524,-15.93,-153.931
-0.315,0.255,-0.159,-89.661,9.949,-121.094
-0.205,0.243,-0.257,-90.149,31.616,-91.675
-0.114,0.275,-0.335,-84.473,44.312,-69.092
-0.029,0.302,-0.432,-73.181,49.072,-57.495
-0.015,0.317,-0.547,-59.998,47.424,-58.289
0.006,0.355,-0.641,-48.584,37.598,-68.054
-0.001,0.361,-0.721,-40.894,22.827,-80.505
-0.041,0.317,-0.76,-35.645,6.531,-92.957
-0.049,0.235,-0.769,-32.104,-9.827,-101.501
-0.01,0.16,-0.748,-30.945,-23.56,-101.501
0.026,0.113,-0.714,-30.457,-28.564,-96.008
0.025,0.074,-0.717,-26.245,-23.01,-89.905
0.035,0.02,-0.779,-17.151,-11.963,-83.923
0.02,0.002,-0.865,-6.836,-3.235,-75.806
0.003,0.027,-0.933,2.136,-2.258,-66.833
0.025,0.053,-0.985,10.925,-6.897,-58.533
0.071,0.078,-1.013,17.212,-14.648,-49.744
0.123,0.106,-1.035,19.348,-20.813,-44.434
0.127,0.116,-1.026,18.738,-23.499,-46.326
0.139,0.13,-0.982,23.193,-34.912,-46.631
0.129,0.129,-0.949,34.668,-42.603,-41.809
0.132,0.108,-0.951,48.828,-43.152,-36.133
0.121,0.105,-0.97,52.551,-33.081,-25.94
0.147,0.141,-0.961,52.307,-23.865,-13.123
0.191,0.189,-0.942,52.246,-17.151,3.052
0.244,0.229,-0.951,54.993,-10.376,16.541
0.263,0.28,-0.987,57.495,-3.967,20.63
0.245,0.329,-1.038,60.974,-3.418,17.395
0.214,0.365,-1.086,67.627,-10.559,11.414
0.206,0.364,-1.131,75.806,-21.423,6.897
0.191,0.357,-1.158,79.834,-30.151,3.723
0.177,0.359,-1.159,77.759,-34.119,2.563
0.173,0.347,-1.14,71.777,-32.104,7.69
0.188,0.362,-1.11,63.232,-24.536,18.127
0.214,0.393,-1.083,53.162,-11.78,29.48
0.239,0.454,-1.038,43.213,3.235,38.818
0.26,0.534,-0.992,39.368,16.541,47.974
0.293,0.595,-0.98,43.64,25.696,56.885
0.335,0.667,-1.008,51.147,31.86,62.866
0.366,0.742,-1.074,57.251,35.522,63.354
0.375,0.793,-1.157,59.021,37.537,57.8
0.353,0.809,-1.223,54.871,37.476,47.668
0.328,0.794,-1.246,47.18,32.959,35.95
0.308,0.755,-1.221,38.574,23.926,24.902
0.274,0.723,-1.157,30.518,13.489,16.357
0.247,0.697,-1.082,23.987,5.432,11.169
0.236,0.672,-1.024,18.677,2.747,10.986
0.231,0.653,-0.983,13.611,5.066,14.587
0.232,0.669,-0.95,8.118,10.315,20.02
0.248,0.692,-0.93,4.7,15.93,26.245
0.281,0.708,-0.927,3.357,19.531,31.25
0.311,0.744,-0.926,2.197,19.958,32.898
0.349,0.804,-0.932,0.671,17.334,31.189
0.375,0.841,-0.938,-1.282,14.709,27.222
0.384,0.851,-0.932,-3.784,11.292,19.775
0.383,0.837,-0.912,-7.019,6.287,10.62
0.368,0.829,-0.882,-10.132,-0.305,3.296
0.354,0.818,-0.847,-12.512,-5.554,-1.465
0.34,0.802,-0.814,-13.611,-8.85,-3.967
0.328,0.779,-0.791,-14.343,-10.254,-4.761
0.315,0.751,-0.778,-15.747,-9.888,-5.005
0.296,0.746,-0.759,-18.005,-9.155,-6.042
0.281,0.736,-0.749,-18.738,-9.521,-7.141
0.273,0.725,-0.747,-18.066,-10.193,-7.446
0.277,0.722,-0.758,-18.25,-10.498,-7.751
0.286,0.724,-0.777,-20.325,-9.705,-7.935
0.29,0.709,-0.796,-23.376,-8.667,-9.277
0.291,0.695,-0.799,-26.489,-9.033,-11.475
0.294,0.677,-0.798,-27.588,-11.108,-13.733
0.287,0.649,-0.81,-26.917,-12.817,-16.724
0.277,0.625,-0.834,-26.245,-12.695,-19.775
0.27,0.611,-0.87,-25.696,-10.864,-20.63
0.272,0.608,-0.908,-25.94,-7.69,-18.799
0.303,0.625,-0.963,-26.489,-3.845,-15.32
0.331,0.642,-1.037,-28.442,0.488,-12.878
0.341,0.652,-1.11,-31.372,5.188,-13.184
0.34,0.649,-1.167,-32.471,6.165,-15.137
0.339,0.632,-1.206,-30.09,2.808,-18.616
0.339,0.587,-1.259,-26.367,-2.808,-21.79
-0.784,-0.505,1.775,133.667,-62.622,161.438
-0.971,0.229,2.232,163.147,-20.935,201.233
-1.24,1.127,2.543,192.688,23.437,235.718
-1.61,2.048,2.731,218.079,65.43,259.094
-1.984,2.872,2.762,244.324,93.872,275.696
-2.325,3.527,2.516,273.132,108.643,297.607
-2.509,3.997,1.728,302.124,126.709,335.815
-2.199,4,0.559,308.716,164.551,404.602
-1.421,4,-0.499,270.203,213.257,490.967
-0.212,4,-1.511,216.919,235.352,519.897
1.201,4,-2.392,168.152,197.327,460.815
2.321,4,-2.738,90.332,91.614,304.504
2.585,3.328,-1.974,-37.17,-39.246,93.933
1.912,2.797,-0.472,-182.678,-129.944,-117.798
0.821,2.247,0.981,-256.348,-170.471,-312.622
-0.363,1.677,1.828,-229.37,-185.059,-456.299
-1.161,1.024,1.813,-127.197,-180.054,-508.728
-1.543,0.48,1.251,-44.861,-127.93,-452.82
-1.57,0.352,0.709,-46.814,-25.696,-321.411
-1.39,0.488,0.475,-114.563,87.585,-166.016
-1.019,0.685,0.477,-187.195,172.913,-36.987
-0.63,0.892,0.541,-229.675,205.811,35.461
-0.329,1.039,0.572,-230.225,181.335,48.401
-0.159,1.095,0.546,-200.073,119.202,7.69
-0.155,1.048,0.462,-157.104,50.659,-64.087
-0.279,0.935,0.342,-117.004,-2.563,-138.672
-0.494,0.8,0.229,-88.806,-34.241,-193.726
-0.677,0.619,0.12,-71.716,-48.34,-217.468
-0.753,0.437,0.031,-64.27,-48.584,-209.045
-0.719,0.27,-0.043,-64.026,-36.438,-175.598
-0.603,0.174,-0.102,-67.2,-16.235,-130.493
-0.46,0.157,-0.172,-68.726,5.92,-87.402
-0.309,0.165,-0.273,-65.918,25.024,-54.016
-0.189,0.203,-0.376,-59.753,35.522,-35.278
-0.122,0.26,-0.455,-50.476,33.447,-30.457
-0.097,0.318,-0.508,-37.231,21.057,-36.011
-0.073,0.38,-0.547,-20.935,4.333,-48.279
-0.096,0.425,-0.585,-5.859,-11.292,-63.904
-0.146,0.42,-0.625,8.179,-24.414,-80.139
-0.191,0.357,-0.665,18.799,-35.522,-90.332
-0.189,0.31,-0.703,24.597,-44.739,-86.609
-0.161,0.288,-0.717,24.841,-48.279,-72.021
-0.072,0.29,-0.726,21.057,-45.349,-53.101
0.001,0.29,-0.726,14.893,-36.621,-34.424
0.08,0.331,-0.719,8.057,-27.527,-19.043
0.177,0.405,-0.71,4.456,-21.423,-7.996
0.229,0.467,-0.725,5.005,-15.198,-4.028
0.224,0.5,-0.76,8.301,-9.888,-9.399
0.237,0.533,-0.821,14.648,-11.841,-20.447
0.224,0.558,-0.894,20.447,-19.287,-31.555
0.179,0.544,-0.969,26.611,-28.32,-41.321
0.157,0.501,-1.015,29.114,-38.513,-47.241
0.122,0.526,-0.971,29.968,-48.218,-48.279
0.2,0.504,-0.878,38.879,-66.223,-36.621
0.246,0.456,-0.824,52.246,-75.439,-20.569
0.279,0.439,-0.877,51.575,-59.509,-10.437
0.295,0.456,-0.937,44.25,-34.119,-9.216
0.289,0.45,-0.962,44.617,-22.339,-2.808
0.309,0.459,-0.961,48.401,-26.306,10.864
0.353,0.491,-0.963,52.49,-30.396,21.79
0.407,0.545,-0.987,55.481,-27.588,25.085
0.42,0.611,-1.019,56.274,-19.897,25.146
0.413,0.675,-1.041,57.922,-12.39,26.489
0.418,0.736,-1.064,62.134,-6.836,29.358
0.411,0.811,-1.123,66.345,-0.427,31.738
0.385,0.875,-1.226,68.604,9.277,31.189
0.361,0.914,-1.336,67.688,19.165,28.259
0.327,0.936,-1.415,62.012,24.841,23.254
0.307,0.943,-1.439,51.147,25.208,17.578
0.302,0.932,-1.406,37.231,21.545,14.099
0.309,0.917,-1.346,22.461,17.212,12.878
0.312,0.908,-1.273,7.568,15.503,13.123
0.326,0.884,-1.199,-4.211,16.296,14.771
0.34,0.839,-1.127,-11.597,17.639,16.479
0.343,0.795,-1.059,-15.137,17.517,16.296
0.347,0.77,-1.003,-15.503,15.32,13.733
0.348,0.72,-0.983,-11.902,12.512,9.583
0.34,0.687,-0.967,-8.423,8.911,5.249
0.331,0.646,-0.957,-6.287,5.188,1.282
0.33,0.62,-0.948,-6.287,2.014,-1.038
0.325,0.604,-0.928,-9.216,-0.732,-1.526
0.318,0.588,-0.895,-13,-1.77,-1.526
0.306,0.57,-0.856,-15.991,-2.502,-1.526
0.3,0.556,-0.828,-17.822,-3.479,-1.16
0.299,0.559,-0.804,-18.616,-4.822,-0.427
0.306,0.565,-0.787,-18.555,-5.31,0.122
0.307,0.568,-0.771,-17.578,-5.005,1.038
0.31,0.583,-0.763,-15.747,-5.066,1.587
0.328,0.628,-0.776,-14.221,-4.578,2.075
0.336,0.649,-0.807,-13.611,-2.502,1.282
0.333,0.672,-0.839,-15.32,-1.099,-1.77
0.319,0.679,-0.855,-19.043,-1.77,-5.493
0.302,0.671,-0.841,-22.888,-4.822,-9.033
0.301,0.663,-0.814,-27.039,-8.789,-11.23
0.292,0.664,-0.775,-30.09,-10.742,-12.512
0.278,0.663,-0.742,-30.762,-10.437,-13.184
0.27,0.667,-0.714,-28.442,-9.766,-13.428
0.271,0.673,-0.708,-23.621,-8.911,-13.184
0.274,0.685,-0.737,-18.921,-6.592,-13.245
0.271,0.713,-0.788,-17.517,-2.747,-12.695
0.274,0.73,-0.833,-18.677,1.221,-11.963
0.278,0.736,-0.856,-21.057,3.662,-11.353
0.286,0.739,-0.867,-22.705,4.15,-12.695
0.282,0.743,-0.869,-22.949,3.235,-15.686
0.279,0.742,-0.874,-21.423,1.77,-19.348
0.276,0.747,-0.876,-19.409,1.221,-23.315
0.275,0.748,-0.888,-16.541,0.793,-25.574
0.271,0.754,-0.895,-13.306,0.61,-26.611
0.264,0.756,-0.899,-11.292,1.099,-27.283
0.27,0.755,-0.899,-9.399,2.197,-25.879
0.292,0.747,-0.912,-8.911,4.578,-22.4
0.317,0.748,-0.924,-12.268,8.911,-18.738
0.338,0.754,-0.918,-16.418,13.855,-16.541
0.368,0.746,-0.922,-17.578,16.724,-15.808
0.389,0.741,-0.943,-18.555,17.212,-17.7
0.384,0.724,-0.961,-19.836,17.151,-22.583
0.375,0.678,-0.967,-20.63,14.587,-27.771
0.369,0.613,-0.971,-22.522,9.888,-31.616
0.348,0.565,-0.951,-26.245,6.47,-33.447
0.204,-0.831,-1.604,17.639,-0.427,46.448
0.165,-0.975,-1.563,27.405,-15.869,41.687
0.136,-1.112,-1.523,39.612,-25.574,45.41
0.126,-1.306,-1.505,55.054,-32.532,54.077
0.085,-1.531,-1.43,71.106,-41.687,57.556
0.047,-1.799,-1.229,87.952,-59.204,56.763
0.014,-2.004,-0.887,107.422,-81.36,53.894
0.007,-2.107,-0.394,121.033,-91.492,56.458
-0.167,-2.112,0.277,124.695,-74.524,64.88
-0.601,-1.836,1.147,132.019,-39.734,69.702
-1.18,-1.215,1.985,161.804,-13.306,87.036
-1.78,-0.295,2.692,209.29,0.488,126.038
-2.43,0.989,3.26,252.869,15.503,175.781
-3.037,2.325,3.65,287.476,33.752,225.464
-3.771,3.602,3.795,311.646,45.532,281.433
-4,4,3.533,323.608,52.185,364.624
-4,4,2.449,323.242,89.844,501.16
-3.104,4,1.068,294.678,180.115,679.016
-1.353,4,-0.037,251.099,245.178,795.654
2.334,4,-2.705,243.774,234.192,811.89
4,4,-4,185.913,104.431,567.139
4,4,-2.379,-75.684,-124.207,100.708
2.986,3.988,0.293,-278.259,-223.694,-324.341
0.07,3.201,2.635,-321.106,-245.667,-678.65
-2.453,2.121,3.326,-191.223,-276.672,-890.564
-3.636,0.765,2.012,19.226,-250.793,-822.327
-3.615,0.239,0.6,64.209,-114.502,-543.884
-2.982,0.313,0.011,-72.51,84.534,-209.29
-2.08,0.647,0.194,-237.061,244.446,47.546
-1.149,1.024,0.524,-319.458,275.574,177.368
-0.492,1.191,0.688,-303.223,194.458,181.335
-0.207,1.219,0.672,-241.943,77.881,89.355
-0.18,1.051,0.553,-175.232,-17.883,-35.095
-0.354,0.809,0.419,-129.15,-72.693,-144.104
-0.565,0.569,0.292,-105.835,-91.675,-213.196
-0.721,0.336,0.179,-98.999,-87.708,-235.535
-0.776,0.167,0.109,-103.699,-69.458,-218.994
-0.71,0.056,0.031,-112.122,-42.175,-180.786
-0.584,0.034,-0.068,-118.53,-13,-136.414
-0.414,0.042,-0.212,-121.826,11.475,-96.802
-0.259,0.057,-0.361,-120.3,27.1,-67.139
-0.114,0.088,-0.497,-113.525,29.541,-51.636
0.017,0.094,-0.62,-103.699,21.606,-47.485
0.094,0.126,-0.704,-91.553,8.972,-49.194
0.143,0.173,-0.774,-80.383,-4.211,-54.688
0.176,0.213,-0.818,-76.477,-13.916,-60.547
0.184,0.243,-0.833,-79.407,-18.555,-64.453
0.168,0.287,-0.806,-87.891,-19.775,-64.209
0.14,0.322,-0.731,-94.482,-21.545,-59.631
0.117,0.326,-0.636,-91.248,-27.1,-54.626
0.129,0.31,-0.568,-81.055,-33.203,-50.964
0.133,0.312,-0.531,-65.552,-34.973,-49.133
0.167,0.276,-0.557,-46.448,-32.654,-47.729
0.207,0.189,-0.643,-25.879,-26.978,-45.349
0.194,0.099,-0.794,-11.047,-17.09,-43.03
0.218,0.087,-0.87,2.869,-13.428,-43.091
0.208,0.116,-0.976,6.287,-13.611,-34.302
0.209,0.143,-1.071,2.258,-8.362,-25.391
0.234,0.162,-1.102,-9.644,1.099,-16.846
0.214,0.191,-1.1,-22.339,7.568,-7.446
0.239,0.218,-1.038,-27.588,5.31,-0.122
0.27,0.241,-0.946,-24.475,-5.615,4.395
0.311,0.253,-0.874,-19.104,-11.658,4.7
0.315,0.251,-0.847,-8.179,-13.123,-3.967
0.29,0.251,-0.838,4.578,-13.123,-15.808
0.25,0.245,-0.872,18.921,-15.137,-20.386
0.219,0.248,-0.926,30.029,-17.517,-19.653
0.198,0.25,-0.993,33.875,-16.541,-16.907
0.171,0.278,-1.029,31.433,-11.658,-12.39
0.174,0.301,-1.059,24.597,-6.592,-5.554
0.199,0.337,-1.071,14.648,-1.648,1.526
0.234,0.4,-1.089,3.113,4.15,8.484
0.263,0.466,-1.093,-5.859,10.132,14.282
0.257,0.509,-1.07,-8.484,12.817,17.273
0.244,0.531,-1.03,-4.883,10.376,16.174
0.253,0.536,-1.003,5.31,4.028,11.963
0.273,0.536,-1.005,19.653,-1.343,6.653
0.275,0.526,-1.032,32.288,-4.028,1.587
0.268,0.513,-1.065,39.246,-4.211,-1.221
0.264,0.516,-1.091,40.833,-2.93,-1.587
0.271,0.534,-1.117,37.415,-0.854,-0.244
0.277,0.549,-1.128,30.029,3.174,1.953
0.282,0.558,-1.118,20.996,7.141,4.028
0.289,0.576,-1.094,12.268,9.399,5.859
0.29,0.599,-1.062,5.554,9.399,7.507
0.298,0.615,-1.026,3.052,8.179,8.972
0.3,0.625,-0.99,3.418,7.751,9.338
0.293,0.613,-0.97,6.165,8.545,7.812
0.283,0.608,-0.954,10.498,9.155,5.31
0.274,0.623,-0.961,13.55,8.606,3.052
0.273,0.614,-0.99,17.395,8.545,1.953
0.271,0.602,-1.021,19.592,7.507,2.625
0.268,0.601,-1.04,16.724,5.493,2.808
0.273,0.61,-1.052,11.536,3.479,2.197
0.272,0.603,-1.044,6.47,1.16,1.831
0.27,0.597,-1.02,1.038,-1.16,1.038
0.264,0.6,-0.992,-5.005,-2.502,-0.488
0.259,0.618,-0.967,-10.071,-2.625,-0.488
0.26,0.636,-0.931,-12.756,-1.892,0.793
0.272,0.638,-0.917,-12.512,-1.038,2.136
0.285,0.629,-0.912,-11.963,-0.366,1.953
0.295,0.635,-0.914,-12.024,-1.16,0.122
0.301,0.642,-0.922,-11.414,-3.357,-2.136
0.303,0.629,-0.932,-10.681,-5.981,-4.761
0.307,0.608,-0.936,-11.475,-7.629,-7.996
0.317,0.601,-0.933,-14.404,-8.484,-10.62
0.316,0.583,-0.918,-18.066,-8.362,-13.306
0.302,0.561,-0.904,-21.606,-7.263,-16.418
0.282,0.551,-0.879,-24.17,-6.348,-19.165
0.278,0.541,-0.851,-24.048,-5.432,-19.714
0.283,0.518,-0.845,-21.179,-3.845,-18.25
0.286,0.498,-0.857,-18.799,-1.709,-16.296
0.283,0.479,-0.868,-18.86,1.038,-15.625
0.281,0.463,-0.881,-18.738,3.418,-14.771
0.287,0.446,-0.897,-16.785,3.601,-13.55
0.297,0.423,-0.922,-14.771,3.052,-13.794
0.301,0.388,-0.955,-13,2.014,-16.296
0.297,0.347,-0.99,-13.367,0.305,-21.606
0.276,0.301,-1.001,-15.076,-2.502,-29.358
0.343,-0.996,-1.36,140.32,-19.775,131.897
0.266,-1.192,-1.033,137.756,-68.909,86.67
0.123,-1.356,-0.59,130.188,-109.314,40.161
-0.208,-1.336,0.028,113.037,-128.601,2.625
-0.655,-1.259,0.913,99.304,-130.859,-19.653
-1.157,-0.966,1.87,99.976,-122.192,-11.658
-1.694,-0.408,2.723,120.3,-97.717,40.649
-2.162,0.399,3.314,159.058,-56.519,122.437
-2.489,1.367,3.511,203.491,-1.465,216.248
-2.719,2.418,3.332,230.591,68.542,311.157
-2.924,3.509,2.845,234.741,151.672,397.095
-3.069,4,1.97,226.562,231.628,469.421
-2.522,4,0.702,209.412,300.354,544.373
-1.854,4,-0.456,171.997,349.426,615.54
-0.479,4,-1.787,139.343,331.299,621.887
2.226,4,-3.71,132.69,256.47,559.509
3.691,3.159,-3.992,69.214,89.844,337.83
3.121,3.631,-1.964,-156.494,-127.197,-14.16
1.486,3.217,0.504,-308.655,-254.272,-315.979
-0.205,2.183,2.383,-283.447,-316.284,-542.847
-1.296,1.283,2.636,-130.127,-326.233,-693.665
-1.855,0.448,1.682,32.593,-263.794,-676.453
-2.065,0.124,0.636,76.172,-131.287,-505.432
-1.994,0.25,0.073,-4.883,34.302,-266.052
-1.571,0.507,-0.016,-119.324,172.974,-49.622
-1.03,0.781,0.144,-200.928,243.225,93.811
-0.585,1.024,0.309,-223.633,231.628,148.376
-0.297,1.155,0.366,-196.533,164.49,119.568
-0.174,1.192,0.31,-146.301,78.369,38.696
-0.158,1.192,0.163,-96.619,3.052,-54.504
-0.255,1.101,-0.022,-64.575,-44.495,-134.949
-0.437,0.919,-0.176,-52.979,-66.528,-191.956
-0.594,0.704,-0.255,-54.382,-75.989,-217.651
-0.654,0.559,-0.259,-63.538,-79.285,-208.496
-0.593,0.458,-0.23,-75.989,-71.594,-171.509
-0.449,0.401,-0.218,-86.731,-50.476,-122.62
-0.248,0.431,-0.268,-93.445,-20.386,-76.599
-0.079,0.509,-0.369,-98.45,10.681,-42.419
0.01,0.609,-0.501,-102.844,34.241,-23.804
0.063,0.695,-0.616,-102.905,41.443,-20.874
0.1,0.77,-0.725,-99.487,29.602,-29.724
0.081,0.788,-0.815,-95.825,6.104,-45.532
0.09,0.734,-0.864,-90.393,-20.996,-64.758
0.133,0.643,-0.876,-84.778,-48.645,-82.031
0.152,0.589,-1.002,-78.369,-65.43,-95.154
0.125,0.402,-0.947,-80.688,-75.5,-103.516
0.124,0.354,-0.96,-86.426,-74.524,-99.67
0.167,0.337,-0.92,-94.727,-65.918,-87.341
0.115,0.321,-1.014,-104.553,-53.04,-70.374
0.155,0.349,-0.823,-104.98,-56.274,-54.26
0.227,0.364,-0.716,-89.844,-57.983,-38.452
0.218,0.303,-0.763,-70.984,-37.292,-30.273
0.218,0.288,-0.795,-58.167,-18.188,-25.879
0.283,0.293,-0.853,-42.419,-12.39,-20.996
0.306,0.307,-0.949,-20.569,-13.367,-19.043
0.289,0.236,-1.055,-4.883,-15.198,-25.085
0.299,0.206,-1.11,5.493,-23.437,-32.043
0.3,0.174,-1.183,13.245,-35.767,-32.104
0.351,0.229,-1.132,20.508,-49.255,-26.062
0.388,0.24,-1.167,21.057,-49.622,-19.958
0.407,0.21,-1.182,13.855,-38.635,-17.456
0.415,0.185,-1.18,6.714,-29.236,-12.817
0.44,0.187,-1.157,2.014,-25.085,-6.714
0.44,0.235,-1.115,0.916,-21.973,-2.197
0.428,0.28,-1.064,6.836,-20.081,-0.488
0.414,0.286,-1.055,20.325,-16.663,-0.916
0.38,0.289,-1.114,34.485,-8.972,-1.465
0.331,0.293,-1.194,42.419,0.916,-1.709
0.288,0.29,-1.248,44.373,8.972,-0.671
0.277,0.291,-1.276,41.748,13.489,2.808
0.28,0.288,-1.289,34.546,16.602,7.568
0.285,0.291,-1.281,25.452,18.433,12.634
0.294,0.296,-1.239,16.724,16.602,16.785
0.314,0.307,-1.17,10.498,12.085,19.531
0.34,0.325,-1.107,7.324,7.996,21.423
0.365,0.332,-1.059,5.859,6.714,23.071
0.395,0.357,-1.022,4.761,6.653,23.804
0.43,0.381,-1.01,3.479,7.08,22.888
0.439,0.387,-1.004,1.709,8.057,19.409
0.437,0.391,-1,-1.16,7.507,14.465
0.433,0.388,-0.99,-3.845,4.517,9.949
0.429,0.395,-0.976,-6.165,0.061,5.737
0.424,0.382,-0.964,-8.667,-2.747,1.648
0.414,0.365,-0.949,-12.451,-3.845,-1.831
0.399,0.368,-0.932,-17.517,-4.456,-3.54
0.393,0.379,-0.907,-21.423,-4.272,-3.662
0.39,0.376,-0.881,-23.437,-3.479,-3.418
0.382,0.376,-0.866,-24.597,-2.686,-2.869
0.366,0.39,-0.852,-24.475,-3.479,-2.197
0.356,0.417,-0.833,-22.034,-6.042,-2.136
0.354,0.433,-0.825,-17.456,-8.606,-1.892
0.357,0.449,-0.833,-12.634,-9.766,-1.648
0.361,0.454,-0.85,-10.254,-9.583,-1.648
0.36,0.468,-0.866,-10.986,-9.705,-1.709
0.355,0.492,-0.866,-13.794,-10.986,-1.404
0.36,0.5,-0.856,-15.869,-12.512,-0.916
0.372,0.505,-0.84,-18.616,-13.123,0
0.38,0.524,-0.818,-21.301,-12.756,0.122
0.382,0.539,-0.786,-22.522,-12.207,-1.282
0.382,0.538,-0.772,-20.142,-11.536,-2.747
0.38,0.546,-0.761,-16.235,-10.132,-4.517
0.386,0.568,-0.744,-9.949,-9.521,-5.371
0.391,0.557,-0.746,0.366,-9.216,-6.287
0.394,0.539,-0.757,9.277,-8.789,-7.629
0.398,0.541,-0.791,14.832,-7.507,-9.094
0.407,0.551,-0.838,16.724,-4.822,-10.193
0.405,0.558,-0.877,14.282,-1.953,-11.169
0.403,0.542,-0.897,10.315,0.183,-12.329
0.401,0.535,-0.897,7.019,-0.732,-13.062
0.405,0.535,-0.889,5.676,-4.639,-14.343
0.414,0.533,-0.872,5.798,-8.179,-18.005
0.429,0.525,-0.862,9.583,-9.827,-22.217
0.447,0.513,-0.873,15.32,-9.949,-25.818
0.46,0.505,-0.888,19.653,-9.277,-30.029
0.469,0.508,-0.896,23.865,-8.667,-34.973
0.484,0.508,-0.921,28.87,-9.399,-40.344
0.491,0.505,-0.955,31.799,-10.071,-46.631
0.494,0.488,-0.987,32.349,-10.132,-53.894
0.491,0.456,-1.01,30.334,-10.742,-60.486
-1.353,1.021,1.929,167.969,-70.862,59.753
-1.818,1.583,2.169,193.848,-52.429,89.6
-2.199,2.174,2.252,213.562,-30.396,146.545
-2.312,2.896,2.143,221.741,-5.676,232.239
-2.2,3.727,1.72,215.271,40.649,331.97
-1.417,4,0.861,198.364,112.793,430.725
-0.406,4,0.024,172.668,167.725,500.793
0.652,4,-0.596,149.414,156.372,497.009
2.397,4,-1.508,106.934,117.249,458.435
3.206,3.934,-2.165,32.288,99.243,338.745
2.634,3.492,-1.34,-101.074,24.841,47.729
1.438,2.921,-0.131,-193.665,-90.881,-226.074
0.098,2.1,0.878,-173.462,-184.082,-412.354
-0.894,1.419,1.246,-100.525,-213.928,-529.419
-1.442,0.858,0.813,-14.587,-175.293,-525.94
-1.604,0.566,0.203,5.127,-76.355,-404.785
-1.503,0.605,-0.155,-55.725,49.011,-231.995
-1.17,0.794,-0.146,-141.968,149.231,-74.219
-0.76,1.04,-0.008,-204.529,193.726,26.428
-0.468,1.26,0.141,-223.206,178.406,59.204
-0.326,1.343,0.255,-204.895,117.798,27.893
-0.332,1.267,0.305,-170.471,42.603,-38.33
-0.414,1.067,0.311,-137.756,-19.287,-107.178
-0.512,0.869,0.285,-117.554,-56.152,-155.09
-0.587,0.712,0.24,-111.023,-65.674,-173.889
-0.62,0.559,0.171,-115.112,-53.406,-165.161
-0.595,0.405,0.106,-124.268,-29.236,-139.404
-0.526,0.308,0.036,-135.01,-3.418,-106.812
-0.418,0.227,-0.042,-144.47,16.968,-74.158
-0.312,0.13,-0.122,-145.569,28.809,-48.645
-0.224,0.055,-0.187,-136.169,28.748,-34.424
-0.141,0.036,-0.245,-117.676,17.761,-29.114
-0.06,0.063,-0.313,-97.534,5.127,-28.198
0.022,0.071,-0.407,-82.092,0.183,-28.259
0.08,0.061,-0.506,-71.96,3.174,-29.114
0.104,0.075,-0.583,-68.909,8.179,-32.104
0.122,0.087,-0.646,-71.838,9.888,-34.79
0.134,0.078,-0.691,-75.745,8.423,-36.865
0.138,0.065,-0.721,-79.163,4.272,-38.757
0.197,0.031,-0.757,-81.238,-1.099,-39.063
0.248,-0.011,-0.788,-78.552,-5.554,-36.865
0.315,-0.036,-0.807,-72.266,-9.766,-33.997
0.325,-0.082,-0.791,-63.66,-13.55,-30.579
0.369,-0.116,-0.766,-49.377,-18.433,-27.283
0.344,-0.113,-0.758,-30.212,-23.315,-23.01
0.336,-0.059,-0.79,-6.592,-24.353,-17.7
0.352,-0.006,-0.825,17.212,-27.588,-11.902
0.364,0.05,-0.913,27.283,-20.569,-0.61
0.342,0.085,-1.024,24.902,-1.77,10.071
0.378,0.12,-1.1,21.606,13.306,16.479
0.372,0.107,-1.188,16.724,18.494,22.461
0.444,0.078,-1.234,14.221,17.334,25.879
0.453,0.107,-1.257,13.123,8.972,25.146
0.488,0.168,-1.243,16.174,-2.808,22.583
0.511,0.231,-1.213,27.039,-14.893,19.47
0.512,0.274,-1.217,41.077,-21.24,17.517
0.515,0.31,-1.237,54.443,-22.4,16.785
0.517,0.375,-1.295,59.265,-17.09,19.104
0.51,0.434,-1.358,58.716,-9.155,23.132
0.497,0.469,-1.42,54.321,-3.784,24.963
0.492,0.499,-1.43,48.584,-2.258,25.696
0.491,0.507,-1.413,44.434,-4.822,23.865
0.485,0.505,-1.383,38.147,-6.592,20.874
0.479,0.5,-1.356,33.63,-6.714,17.7
0.48,0.478,-1.327,30.762,-6.47,14.282
0.479,0.464,-1.303,27.1,-5.493,11.719
0.465,0.458,-1.271,22.156,-3.296,10.742
0.455,0.454,-1.237,17.944,-1.709,10.132
0.449,0.457,-1.198,14.465,0.061,8.972
0.432,0.467,-1.153,12.512,1.526,7.141
0.408,0.469,-1.117,12.756,1.709,4.517
0.382,0.465,-1.094,13.489,0.977,1.526
0.351,0.454,-1.077,13.733,0.122,-0.366
0.332,0.462,-1.053,12.634,-0.061,-1.038
0.327,0.484,-1.014,11.841,0.732,0.793
0.332,0.462,-0.985,13.062,2.502,3.357
0.343,0.438,-0.961,12.634,4.761,4.333
0.352,0.451,-0.936,10.071,5.981,4.028
0.354,0.469,-0.921,8.667,5.798,3.418
0.356,0.473,-0.913,8.545,5.737,3.052
0.375,0.489,-0.905,7.385,6.531,2.625
0.383,0.501,-0.899,5.31,8.24,3.357
0.38,0.517,-0.898,3.113,9.583,3.235
0.384,0.531,-0.903,0.916,9.888,0.977
0.383,0.541,-0.906,-1.282,10.254,-2.014
0.365,0.529,-0.908,-2.625,9.644,-5.676
0.358,0.514,-0.903,-4.333,8.179,-9.033
0.349,0.497,-0.889,-7.141,6.958,-11.597
0.337,0.481,-0.867,-9.766,6.47,-13.794
0.318,0.477,-0.832,-10.681,6.775,-15.381
0.305,0.463,-0.811,-7.935,7.08,-15.381
0.288,0.438,-0.816,-3.418,7.812,-15.198
0.272,0.444,-0.828,-0.427,8.85,-15.442
0.254,0.454,-0.863,0.793,10.437,-15.381
0.239,0.454,-0.9,0.427,12.878,-14.038
0.236,0.47,-0.927,-2.686,14.648,-11.536
0.24,0.5,-0.94,-7.385,16.052,-8.667
0.24,0.512,-0.941,-10.193,16.846,-5.981
0.244,0.505,-0.929,-10.193,16.113,-4.333
0.259,0.511,-0.931,-9.583,13.977,-3.479
0.259,0.526,-0.929,-9.46,11.841,-3.54
0.271,0.521,-0.931,-7.751,10.315,-4.761
0.283,0.507,-0.937,-5.554,8.85,-5.493
0.281,0.51,-0.934,-4.883,7.385,-5.676
0.281,0.498,-0.917,-2.686,5.31,-6.409
0.291,0.481,-0.91,0.916,3.906,-6.897
0.305,0.461,-0.921,4.15,3.906,-6.714
0.31,0.456,-0.941,5.615,6.531,-6.409
0.313,0.435,-0.952,6.958,9.827,-6.165
0.318,0.395,-0.984,8.667,12.024,-5.737
0.316,0.377,-1,7.385,13.245,-5.981
0.306,0.35,-1.002,7.263,12.817,-7.507
0.284,0.305,-1.023,10.925,11.902,-9.766
0.257,0.242,-1.046,13.794,10.925,-12.451
0.211,0.185,-1.08,15.503,10.193,-14.282
0.165,0.141,-1.119,16.785,9.583,-13.916
0.131,0.1,-1.154,17.395,9.277,-11.963
0.125,0.046,-1.199,18.188,8.85,-8.301
0.115,0,-1.244,13.489,10.559,-5.249
-1.386,0.639,2.354,86.914,-93.323,-15.625
-1.855,1.197,2.554,134.399,-74.402,14.465
-2.162,1.81,2.463,172.241,-46.631,81.665
-2.31,2.521,2.222,181.763,-1.404,168.518
-2.273,3.296,1.773,176.758,53.894,257.874
-1.594,3.884,1.008,182.739,98.511,340.576
-0.427,4,0.182,199.951,112.366,410.4
0.728,4,-0.37,198.73,75.562,414.368
2.216,4,-0.891,177.795,19.165,349.365
3.07,4,-1.734,105.774,18.494,266.907
2.628,3.378,-1.823,-12.146,28.198,88.379
1.567,2.946,-0.828,-142.639,-25.085,-158.569
0.235,2.3,0.35,-194.702,-128.235,-347.107
-0.894,1.604,1.082,-150.085,-218.506,-471.252
-1.494,0.966,1.126,-67.444,-238.831,-503.906
-1.64,0.515,0.808,-25.085,-173.096,-416.138
-1.55,0.447,0.524,-55.237,-47.607,-255.31
-1.285,0.613,0.402,-121.216,83.801,-90.393
-0.899,0.872,0.411,-175.11,164.307,25.33
-0.529,1.124,0.445,-194.031,171.143,79.956
-0.275,1.257,0.452,-181.213,127.014,76.721
-0.144,1.274,0.437,-155.09,67.2,30.945
-0.124,1.209,0.389,-128.601,12.573,-29.785
-0.163,1.082,0.307,-107.483,-24.17,-84.351
-0.24,0.93,0.218,-95.032,-39.917,-121.704
-0.322,0.761,0.136,-91.431,-39.429,-139.221
-0.368,0.614,0.079,-94.177,-30.518,-136.902
-0.347,0.516,0.034,-98.145,-18.738,-118.835
-0.27,0.465,-0.022,-101.196,-6.287,-92.346
-0.151,0.445,-0.093,-100.708,7.324,-66.895
-0.056,0.471,-0.184,-98.45,21.79,-47.974
0.023,0.509,-0.288,-95.337,33.203,-37.354
0.045,0.522,-0.402,-89.355,38.94,-36.865
0.067,0.558,-0.51,-81.36,35.461,-45.349
0.109,0.585,-0.638,-74.768,25.757,-58.96
0.082,0.54,-0.752,-72.144,15.991,-75.928
0.054,0.491,-0.828,-72.449,3.662,-94.055
0.064,0.427,-0.879,-78.674,-11.597,-104.431
0.078,0.35,-0.873,-88.501,-26.733,-102.661
0.098,0.251,-0.817,-94.788,-37.964,-97.961
0.136,0.18,-0.726,-97.778,-45.044,-91.675
0.17,0.172,-0.64,-95.581,-45.959,-82.092
0.212,0.154,-0.597,-87.341,-39.673,-71.106
0.249,0.133,-0.605,-72.754,-27.466,-60.791
0.281,0.115,-0.665,-54.993,-15.076,-53.162
0.283,0.099,-0.75,-37.476,-8.118,-48.218
0.288,0.092,-0.842,-22.095,-8.423,-45.227
0.289,0.102,-0.93,-10.498,-13.855,-43.64
0.331,0.106,-0.994,-4.028,-20.752,-41.931
0.39,0.134,-1.094,-3.357,-25.635,-39.551
0.446,0.054,-1.146,0.671,-30.396,-40.039
0.488,0.044,-1.041,9.644,-37.292,-36.926
0.536,0.029,-1.16,21.362,-29.053,-34.973
0.573,0.044,-1.142,27.71,-19.714,-36.133
0.532,0.052,-1.185,32.593,-8.179,-38.879
0.45,0.017,-1.233,38.208,5.249,-44.128
0.377,0.003,-1.255,45.471,8.118,-45.288
0.336,0.018,-1.27,55.725,1.77,-38.635
0.293,0.079,-1.293,67.871,-4.944,-28.32
0.233,0.13,-1.351,78.674,-5.615,-20.569
0.187,0.176,-1.388,84.961,-2.441,-14.465
0.159,0.228,-1.403,88.745,1.526,-6.348
0.163,0.291,-1.43,89.478,7.69,5.249
0.173,0.37,-1.473,86.792,16.418,18.494
0.214,0.429,-1.509,80.505,25.269,28.198
0.232,0.46,-1.51,70.374,31.555,33.813
0.254,0.505,-1.49,52.368,34.424,36.804
0.297,0.557,-1.436,36.499,33.02,37.476
0.336,0.59,-1.382,25.33,28.503,35.278
0.353,0.592,-1.327,15.625,23.621,28.198
0.348,0.574,-1.263,6.897,18.066,16.296
0.327,0.543,-1.189,-0.977,11.23,3.601
0.296,0.515,-1.11,-6.165,3.235,-4.395
0.274,0.473,-1.042,-7.812,-4.333,-8.85
0.26,0.434,-0.974,-9.46,-10.01,-11.353
0.255,0.411,-0.908,-12.268,-11.414,-12.451
0.256,0.398,-0.849,-13.55,-9.583,-11.23
0.267,0.385,-0.805,-12.329,-6.958,-7.69
0.281,0.377,-0.783,-9.766,-4.761,-3.113
0.287,0.38,-0.777,-8.362,-2.808,0.183
0.29,0.395,-0.765,-7.69,-1.587,2.197
0.298,0.405,-0.752,-6.226,-0.732,3.479
0.312,0.414,-0.751,-4.456,0.549,3.967
0.319,0.436,-0.759,-3.967,2.441,3.906
0.318,0.458,-0.771,-5.31,5.066,3.418
0.319,0.472,-0.785,-6.409,7.446,2.93
0.319,0.502,-0.799,-8.423,8.911,3.113
0.315,0.535,-0.806,-10.315,8.85,3.296
0.331,0.569,-0.809,-10.315,7.019,2.869
0.337,0.598,-0.81,-9.705,5.249,2.136
0.344,0.605,-0.809,-7.935,3.906,0.183
0.35,0.602,-0.827,-4.822,2.075,-1.221
0.349,0.608,-0.852,-3.296,0.183,-1.77
0.35,0.607,-0.868,-4.211,0.183,-2.686
0.348,0.593,-0.876,-6.104,1.526,-3.052
0.349,0.579,-0.875,-8.484,3.113,-3.174
0.349,0.582,-0.868,-11.108,3.784,-4.272
0.344,0.581,-0.866,-12.085,3.845,-6.531
0.34,0.58,-0.86,-10.559,2.808,-9.521
0.344,0.571,-0.861,-6.287,0.366,-12.756
0.354,0.568,-0.883,-1.282,-2.075,-15.442
0.366,0.568,-0.922,2.38,-2.808,-18.311
0.366,0.571,-0.963,4.761,-2.319,-22.034
0.356,0.583,-1.002,6.958,-2.197,-24.902
0.364,0.592,-1.069,8.972,-1.465,-25.269
0.371,0.606,-1.166,7.69,2.502,-21.667
0.381,0.652,-1.237,0.854,8.789,-16.541
0.39,0.639,-1.291,-4.7,13.977,-13.184
0.381,0.603,-1.334,-10.071,16.235,-11.78
0.364,0.555,-1.347,-16.418,14.465,-13.184
0.346,0.487,-1.328,-19.592,8.362,-18.188
0.318,0.413,-1.294,-19.958,0.427,-24.17
0.29,0.321,-1.26,-18.799,-6.653,-30.64
0.261,0.229,-1.219,-17.639,-10.681,-35.522
0.215,0.13,-1.175,-16.113,-11.719,-35.522
0.166,0.015,-1.123,-12.573,-10.132,-30.762
0.108,-0.098,-1.086,-7.629,-6.165,-21.362
0.052,-0.225,-1.058,0.732,-1.709,-7.568
0.014,-0.302,-1.069,6.958,0.977,9.949
-1.737,0.857,2.287,177.002,-48.889,89.539
-2.224,1.55,2.739,200.989,-47.363,123.718
-2.569,2.327,3.036,223.022,-42.053,176.819
-2.8,3.186,2.973,237.549,-13,250.854
-2.88,3.997,2.298,242.92,48.889,333.801
-1.985,4,1.049,236.694,128.174,428.589
-0.671,4,-0.121,208.984,189.331,512.085
0.664,4,-1.047,181.03,174.805,494.568
2.821,4,-2.551,151.123,108.643,413.269
3.704,4,-3.234,47.791,47.791,238.586
2.7,3.86,-1.604,-151.55,-53.955,-69.397
1.003,2.982,0.629,-262.451,-178.772,-335.449
-0.619,1.914,2.11,-218.933,-254.211,-517.334
-1.541,0.926,1.912,-81.055,-243.835,-580.505
-1.908,0.37,0.936,8.606,-145.63,-477.966
-1.916,0.317,0.244,-26.123,0.122,-289.062
-1.533,0.524,0.074,-110.657,119.507,-100.83
-0.963,0.817,0.198,-175.476,171.143,30.945
-0.521,1.076,0.447,-199.707,160.522,81.238
-0.29,1.184,0.6,-183.472,112.366,63.904
-0.247,1.143,0.611,-145.935,54.138,9.644
-0.325,1.036,0.543,-108.582,3.906,-49.5
-0.405,0.932,0.433,-84.167,-24.231,-89.539
-0.417,0.859,0.289,-80.383,-24.17,-102.539
-0.394,0.809,0.161,-94.055,-1.831,-97.412
-0.37,0.748,0.068,-112.732,22.156,-85.876
-0.323,0.695,0.017,-123.657,30.273,-75.5
-0.238,0.669,-0.03,-124.695,21.973,-68.848
-0.168,0.672,-0.076,-120.544,11.475,-66.284
-0.095,0.657,-0.143,-115.356,6.165,-67.261
0.001,0.619,-0.241,-109.985,5.371,-70.862
0.061,0.556,-0.345,-106.873,7.568,-76.843
0.042,0.505,-0.43,-105.469,8.362,-84.473
0.002,0.471,-0.47,-102.356,1.831,-91.064
-0.018,0.455,-0.467,-97.473,-9.521,-92.773
-0.02,0.41,-0.459,-93.384,-19.043,-87.646
-0.003,0.37,-0.438,-89.05,-22.644,-78.308
0.051,0.335,-0.44,-84.9,-20.813,-67.627
0.134,0.335,-0.483,-81.848,-14.099,-58.228
0.211,0.312,-0.576,-80.2,-2.869,-53.284
0.216,0.28,-0.686,-77.942,7.874,-54.565
0.226,0.273,-0.782,-76.233,10.376,-59.509
0.285,0.25,-0.872,-76.721,4.517,-62.317
0.333,0.179,-0.925,-75.134,-2.808,-63.171
0.315,0.113,-1.03,-76.843,-6.897,-65.247
0.282,0.085,-0.989,-72.815,-14.343,-70.129
0.281,0.064,-0.84,-59.143,-31.921,-68.787
0.243,0.008,-0.779,-39.612,-39.551,-59.998
0.258,-0.006,-0.816,-21.057,-30.884,-54.504
0.211,-0.024,-0.871,-2.319,-14.832,-49.255
0.143,-0.074,-0.943,13.611,-2.38,-41.748
0.099,-0.123,-1.03,26.733,2.441,-32.471
0.097,-0.136,-1.105,37.292,0.61,-20.874
0.168,-0.109,-1.184,43.762,-3.418,-10.132
0.175,-0.091,-1.229,46.57,-9.277,-2.747
0.198,-0.031,-1.278,42.725,-15.686,1.404
0.228,0.032,-1.281,37.72,-21.851,4.7
0.21,0.102,-1.315,29.419,-21.057,9.338
0.189,0.179,-1.329,27.771,-17.09,14.648
0.196,0.243,-1.306,35.156,-15.259,19.958
0.202,0.262,-1.339,39.673,-13.855,28.32
0.244,0.273,-1.327,49.072,-14.954,35.278
0.273,0.261,-1.323,55.054,-14.771,40.161
0.282,0.274,-1.313,54.871,-11.597,44.312
0.328,0.334,-1.295,53.04,-8.057,49.194
0.388,0.406,-1.316,51.88,-2.258,53.04
0.398,0.448,-1.332,47.241,7.568,53.772
0.41,0.483,-1.34,38.635,18.25,51.941
0.432,0.525,-1.323,28.259,24.78,48.584
0.453,0.578,-1.281,19.165,26.306,43.701
0.449,0.605,-1.235,11.902,24.841,36.499
0.416,0.61,-1.188,6.714,22.339,26.917
0.38,0.607,-1.136,3.357,18.799,16.602
0.349,0.61,-1.098,0.977,14.587,8.667
0.321,0.616,-1.069,-0.732,11.047,4.028
0.305,0.619,-1.045,-1.587,10.01,2.93
0.308,0.611,-1.023,-2.625,11.292,4.15
0.32,0.615,-1.012,-4.272,13.123,6.104
0.331,0.615,-1.002,-5.554,13.184,8.789
0.338,0.621,-0.992,-5.859,10.498,10.132
0.356,0.628,-0.979,-6.348,6.104,9.399
0.373,0.636,-0.969,-7.507,1.465,5.859
0.368,0.628,-0.953,-9.644,-2.563,0.305
0.362,0.615,-0.943,-12.085,-6.531,-5.493
0.349,0.585,-0.925,-15.076,-10.559,-11.536
0.322,0.557,-0.897,-18.982,-13.184,-16.724
0.287,0.539,-0.861,-22.461,-14.648,-20.691
0.272,0.518,-0.821,-22.949,-15.869,-23.071
0.266,0.497,-0.791,-21.24,-16.296,-23.804
0.247,0.481,-0.776,-18.677,-14.587,-23.926
0.227,0.464,-0.764,-15.442,-11.719,-23.621
0.228,0.441,-0.765,-11.23,-9.216,-22.949
0.225,0.419,-0.772,-8.911,-6.348,-21.851
0.218,0.397,-0.779,-8.606,-3.235,-20.691
0.213,0.383,-0.784,-9.033,-1.038,-19.592
0.211,0.367,-0.791,-8.972,1.038,-18.555
0.193,0.347,-0.793,-7.996,2.625,-17.395
0.181,0.334,-0.803,-7.385,3.052,-15.747
0.182,0.337,-0.812,-6.836,2.319,-13.733
0.176,0.348,-0.815,-7.141,2.747,-12.207
0.17,0.343,-0.817,-6.042,4.028,-10.986
0.179,0.336,-0.829,-5.005,5.981,-10.315
0.188,0.332,-0.841,-4.333,7.507,-9.155
0.19,0.314,-0.853,-2.869,7.874,-8.667
0.194,0.29,-0.855,-3.174,6.836,-8.789
0.203,0.28,-0.849,-3.418,4.517,-8.301
0.223,0.274,-0.85,-1.221,1.526,-7.141
0.233,0.266,-0.858,0,-0.183,-5.615
0.253,0.263,-0.87,-0.732,0.916,-3.784
0.269,0.269,-0.888,-2.075,3.723,-1.282
0.287,0.273,-0.898,-2.563,6.409,1.343
0.315,0.261,-0.922,-0.793,8.85,3.235
0.332,0.273,-0.984,0.977,11.658,4.7
0.38,0.335,-1.077,-1.282,15.625,4.517
0.387,0.36,-1.188,-4.7,19.897,4.639
0.38,0.348,-1.279,-1.16,22.278,3.296
0.368,0.329,-1.39,-1.709,23.071,-0.977
0.326,0.327,-1.467,-4.089,22.4,-5.981
0.294,0.279,-1.526,-4.15,17.151,-11.597
0.423,-1.016,-1.551,110.718,15.076,138.306
0.403,-1.185,-1.351,95.703,3.723,111.328
0.361,-1.352,-0.957,87.83,-33.264,70.068
0.202,-1.464,-0.357,89.417,-78.186,23.743
-0.15,-1.466,0.428,103.149,-112.183,-15.503
-0.657,-1.363,1.248,131.836,-126.16,-31.86
-1.158,-0.981,1.887,172.241,-116.516,-4.822
-1.619,-0.251,2.371,207.092,-81.665,61.523
-2.002,0.804,2.75,225.708,-31.677,145.447
-2.232,1.987,2.974,235.291,22.339,224.792
-2.459,3.114,2.917,236.816,79.834,289.917
-2.76,4,2.552,232.727,133.24,347.839
-2.504,4,1.55,239.014,171.692,413.757
-1.311,4,0.074,237.427,209.778,488.953
0.087,4,-1.208,215.515,228.088,525.269
2.388,4,-3.028,195.496,174.622,508.728
4,4,-3.884,128.357,61.401,335.937
3.924,4,-1.515,-87.891,-112.854,-37.231
1.741,2.936,1.356,-220.276,-259.827,-384.766
-0.549,1.499,2.633,-141.174,-301.819,-613.953
-1.665,0.309,1.651,7.69,-224.548,-632.08
-2.126,-0.08,0.296,40.649,-58.533,-423.401
-2.026,0.021,-0.073,-55.176,102.417,-155.151
-1.427,0.345,0.181,-145.081,189.88,48.95
-0.79,0.633,0.386,-167.908,197.266,147.766
-0.516,0.773,0.463,-138.733,153.259,143.799
-0.477,0.743,0.418,-91.553,87.83,84.412
-0.548,0.656,0.361,-54.565,28.137,22.461
-0.601,0.574,0.282,-39.734,-3.723,-14.587
-0.584,0.54,0.17,-46.204,-4.639,-26.428
-0.537,0.509,0.048,-64.27,13,-24.719
-0.488,0.486,-0.036,-84.229,30.334,-21.912
-0.409,0.494,-0.093,-95.947,31.311,-24.17
-0.327,0.511,-0.144,-98.328,17.883,-30.273
-0.264,0.522,-0.193,-95.52,1.953,-38.635
-0.215,0.551,-0.238,-92.712,-9.033,-45.593
-0.181,0.616,-0.261,-93.262,-13.489,-48.035
-0.142,0.693,-0.288,-95.52,-13.184,-45.349
-0.083,0.771,-0.33,-96.252,-9.338,-41.199
-0.039,0.813,-0.38,-96.802,-4.7,-40.283
-0.038,0.855,-0.426,-98.145,-2.625,-43.335
-0.061,0.912,-0.443,-97.229,-6.47,-47.729
-0.064,0.939,-0.443,-91.248,-15.32,-50.659
-0.046,0.953,-0.462,-86.487,-22.583,-51.819
-0.013,0.934,-0.486,-86.182,-24.658,-51.331
0.001,0.874,-0.488,-87.036,-24.292,-49.744
0.022,0.822,-0.462,-85.327,-25.085,-47.241
0.046,0.795,-0.427,-78.979,-27.588,-42.419
0.094,0.765,-0.46,-65.979,-27.161,-38.757
0.122,0.695,-0.557,-48.706,-22.644,-38.452
0.156,0.641,-0.724,-34.18,-16.785,-41.626
0.159,0.558,-0.864,-28.259,-13.55,-45.471
0.118,0.478,-0.95,-26.611,-16.357,-48.34
0.115,0.451,-0.977,-28.32,-25.94,-45.41
0.142,0.398,-0.988,-29.236,-37.598,-35.706
0.186,0.348,-0.992,-29.053,-44.739,-25.024
0.252,0.322,-1.001,-30.396,-45.349,-17.822
0.279,0.307,-1.021,-34.119,-40.588,-17.517
0.298,0.258,-1.02,-32.166,-41.443,-22.705
0.291,0.198,-1.007,-22.949,-49.194,-26.184
0.294,0.134,-1.021,-13.55,-55.847,-32.837
0.284,0.034,-1.058,-7.935,-55.847,-43.396
0.253,-0.046,-1.063,-2.441,-57.495,-48.95
0.226,-0.092,-1.066,2.197,-59.204,-46.082
0.235,-0.109,-1.013,5.31,-61.462,-36.804
0.237,-0.092,-0.995,6.47,-60.303,-24.17
0.28,-0.044,-0.973,5.92,-54.81,-10.01
0.34,0.028,-0.958,8.667,-41.809,3.723
0.39,0.069,-0.972,12.695,-23.621,13.367
0.433,0.12,-1.012,16.357,-5.737,18.188
0.458,0.161,-1.078,19.165,8.24,19.226
0.446,0.197,-1.137,22.888,18.127,15.686
0.42,0.239,-1.193,26.794,21.301,8.972
0.385,0.279,-1.239,31.372,19.836,1.892
0.336,0.319,-1.261,34.668,16.724,-4.272
0.293,0.365,-1.247,33.875,12.939,-9.766
0.247,0.415,-1.221,28.687,12.024,-11.597
0.218,0.46,-1.189,21.851,13.733,-7.935
0.201,0.495,-1.139,15.137,17.883,0
0.216,0.526,-1.086,9.216,23.621,9.705
0.247,0.559,-1.04,5.676,30.029,18.738
0.282,0.577,-1.016,6.409,36.011,24.536
0.314,0.583,-1.027,9.766,39.307,24.963
0.33,0.591,-1.055,12.756,38.208,20.264
0.317,0.58,-1.083,13.733,33.02,12.207
0.296,0.555,-1.087,12.756,24.231,2.502
0.276,0.528,-1.062,9.949,12.756,-5.249
0.25,0.514,-1.012,5.859,1.953,-10.803
0.236,0.505,-0.969,1.038,-4.761,-13.428
0.221,0.491,-0.931,-3.296,-7.385,-12.573
0.216,0.478,-0.883,-7.507,-8.423,-10.254
0.22,0.471,-0.837,-10.01,-8.362,-7.629
0.225,0.48,-0.8,-9.888,-8.179,-5.371
0.23,0.488,-0.778,-6.958,-7.629,-3.784
0.237,0.495,-0.778,-2.319,-6.958,-2.686
0.241,0.506,-0.792,0.977,-5.859,-1.953
0.238,0.518,-0.808,2.808,-5.066,-1.587
0.229,0.545,-0.808,2.747,-5.371,-1.282
0.238,0.561,-0.81,2.991,-6.042,-0.183
0.25,0.57,-0.815,3.052,-6.47,0.732
0.248,0.58,-0.817,0.977,-6.836,0.122
0.234,0.588,-0.813,-1.526,-7.568,-1.465
0.232,0.603,-0.79,-3.601,-8.972,-1.404
0.243,0.609,-0.757,-4.944,-8.667,0.122
0.258,0.604,-0.74,-4.883,-6.042,1.709
0.258,0.604,-0.73,-5.127,-2.441,1.831
0.263,0.608,-0.729,-3.723,-0.305,0.732
0.269,0.607,-0.735,-0.793,0.244,-0.793
0.268,0.597,-0.747,1.526,0.122,-2.991
0.253,0.579,-0.757,2.808,-0.183,-6.531
0.235,0.57,-0.755,2.869,-1.099,-9.277
0.221,0.56,-0.759,2.686,-1.831,-9.888
0.211,0.552,-0.766,1.892,-1.221,-9.216
0.197,0.545,-0.772,0.122,0.61,-7.69
0.185,0.547,-0.774,-1.709,2.075,-5.554
0.172,0.557,-0.773,-2.625,3.296,-3.174
0.166,0.57,-0.769,-2.502,4.028,-1.038
0.174,0.584,-0.776,-1.099,4.639,1.221
0.186,0.603,-0.795,-0.244,5.981,3.052
0.047,-1.193,-1.365,16.846,-34.302,61.157
0.062,-1.302,-1.229,22.888,-30.457,82.153
0.084,-1.418,-1.057,31.494,-28.381,99.06
0.104,-1.609,-0.849,48.035,-33.936,107.91
0.062,-1.805,-0.556,70.313,-47.363,104.736
-0.011,-1.93,-0.199,92.712,-65.735,94.238
-0.142,-1.84,0.174,112.732,-82.642,87.036
-0.328,-1.6,0.6,123.535,-83.801,82.581
-0.669,-1.244,1.07,127.38,-61.157,84.229
-1.009,-0.723,1.523,134.888,-29.846,98.083
-1.301,0.034,1.976,147.644,-2.686,126.465
-1.672,0.968,2.356,160.034,29.297,162.659
-2.152,1.921,2.68,177.124,65.186,195.496
-2.573,2.798,2.795,210.693,88.684,237.183
-2.89,3.653,2.601,250.671,105.042,298.95
-2.966,4,1.916,279.236,132.935,376.343
-2.347,4,0.698,288.025,185.852,466.675
-1.082,4,-0.614,280.518,228.149,539.062
0.506,4,-1.606,264.465,194.946,534.424
2.058,4,-2.482,225.647,98.206,439.697
3.425,4,-2.817,147.644,-12.39,263
3.297,3.466,-1.848,-6.348,-108.948,30.579
2.084,2.967,-0.158,-166.199,-166.565,-222.839
0.37,2.204,1.323,-211.731,-202.942,-433.411
-1.035,1.459,1.794,-129.517,-224.792,-566.284
-1.673,0.736,1.229,-2.502,-203.369,-568.42
-1.937,0.408,0.476,43.335,-118.652,-442.688
-1.837,0.391,0.067,-17.334,4.517,-259.827
-1.532,0.538,0.13,-113.464,112.854,-83.557
-1.088,0.761,0.347,-182.617,164.49,35.217
-0.672,0.933,0.496,-199.768,149.902,84.595
-0.383,0.993,0.532,-179.687,98.328,70.435
-0.265,0.981,0.486,-147.278,39.917,13.611
-0.244,0.91,0.361,-115.112,-9.766,-55.115
-0.294,0.771,0.195,-92.712,-42.419,-113.464
-0.378,0.63,0.053,-84.412,-54.871,-151.245
-0.43,0.48,-0.034,-90.942,-53.223,-166.626
-0.431,0.361,-0.095,-105.835,-44.067,-159.912
-0.369,0.289,-0.155,-119.141,-31.677,-139.221
-0.284,0.224,-0.234,-128.235,-16.846,-114.624
-0.214,0.198,-0.306,-133.728,-3.479,-93.14
-0.171,0.219,-0.345,-135.925,2.93,-76.294
-0.127,0.237,-0.371,-129.456,0.916,-61.218
-0.063,0.275,-0.387,-115.173,-7.324,-49.683
0.044,0.341,-0.421,-98.389,-14.587,-44.006
0.101,0.367,-0.479,-81.482,-15.625,-43.884
0.133,0.371,-0.56,-64.514,-15.015,-48.401
0.157,0.36,-0.653,-50.842,-16.968,-53.162
0.2,0.333,-0.74,-39.307,-22.217,-54.626
0.25,0.289,-0.827,-29.907,-27.466,-53.223
0.282,0.215,-0.918,-24.963,-27.71,-50.659
0.288,0.152,-0.978,-24.048,-24.719,-48.828
0.275,0.1,-1.01,-24.963,-23.437,-47.729
0.243,0.067,-1.016,-22.461,-25.635,-46.326
0.22,0.084,-1.023,-14.954,-29.48,-44.8
0.238,0.113,-1.045,-4.578,-30.823,-41.26
0.16,0.086,-1.098,4.944,-26.245,-36.743
0.113,0.079,-1.17,17.7,-21.179,-34.241
0.182,0.104,-1.17,33.997,-29.297,-26.184
0.187,0.145,-1.308,28.931,-19.653,-8.179
0.229,0.146,-1.395,27.527,-6.714,0.671
0.289,0.121,-1.407,26.367,-1.892,5.005
0.351,0.133,-1.333,24.597,-10.254,11.169
0.387,0.157,-1.303,20.996,-18.799,16.724
0.428,0.171,-1.259,22.4,-25.146,13.611
0.428,0.196,-1.218,22.339,-28.381,7.812
0.421,0.222,-1.193,24.536,-28.687,1.892
0.415,0.227,-1.163,27.344,-28.198,-0.977
0.385,0.247,-1.159,25.146,-20.142,1.587
0.372,0.262,-1.154,22.644,-8.789,3.784
0.368,0.296,-1.141,19.836,1.099,7.019
0.341,0.32,-1.13,15.991,12.695,12.39
0.32,0.354,-1.125,15.381,23.621,14.954
0.321,0.406,-1.135,17.273,31.555,15.869
0.309,0.462,-1.157,21.057,36.438,16.174
0.295,0.494,-1.191,24.841,38.269,14.282
0.284,0.502,-1.211,25.818,36.56,11.23
0.282,0.513,-1.191,24.414,30.762,8.362
0.294,0.518,-1.146,22.461,24.109,6.592
0.31,0.514,-1.096,21.057,19.409,6.104
0.332,0.517,-1.052,18.982,18.616,6.287
0.339,0.523,-1.015,15.808,20.813,5.92
0.333,0.52,-0.989,13.489,23.926,5.127
0.329,0.505,-0.976,12.695,25.818,3.418
0.309,0.496,-0.966,11.78,25.452,1.587
0.286,0.499,-0.955,9.949,22.949,-0.061
0.274,0.505,-0.946,8.972,19.226,-1.099
0.27,0.506,-0.934,8.667,15.442,-1.16
0.264,0.504,-0.917,9.033,11.597,-0.977
0.274,0.52,-0.919,8.606,8.728,-0.977
0.279,0.525,-0.922,6.958,7.812,-1.038
0.281,0.515,-0.922,5.127,7.812,-1.648
0.286,0.508,-0.909,2.258,6.287,-2.808
0.277,0.5,-0.891,0.549,3.113,-5.127
0.27,0.497,-0.866,0.732,-0.793,-8.179
0.262,0.488,-0.837,2.441,-3.418,-10.559
0.251,0.473,-0.831,4.883,-5.005,-11.78
0.229,0.464,-0.832,6.348,-5.615,-12.878
0.208,0.474,-0.837,6.348,-5.493,-12.207
0.214,0.501,-0.852,5.188,-3.967,-8.972
0.214,0.507,-0.856,3.235,-0.61,-5.005
0.23,0.507,-0.86,0.366,2.808,-2.747
0.231,0.531,-0.866,-2.869,3.54,-1.526
0.247,0.549,-0.865,-2.747,-0.427,-1.587
0.249,0.548,-0.875,-1.648,-3.601,-3.052
0.251,0.553,-0.873,-2.502,-4.639,-4.944
0.252,0.549,-0.855,-4.089,-4.333,-5.493
0.256,0.532,-0.835,-4.639,-3.601,-5.615
0.259,0.521,-0.825,-4.395,-3.723,-6.165
0.253,0.51,-0.823,-3.296,-4.822,-7.996
0.241,0.494,-0.824,-2.563,-6.042,-9.888
0.23,0.479,-0.816,-3.113,-5.859,-10.376
0.217,0.466,-0.796,-4.517,-4.333,-9.277
0.204,0.461,-0.777,-5.371,-2.014,-7.385
0.198,0.47,-0.771,-4.761,0.732,-4.7
0.196,0.489,-0.782,-3.052,3.174,-2.38
0.199,0.509,-0.797,-0.488,4.639,-0.854
0.207,0.528,-0.817,2.136,5.249,0.488
0.216,0.542,-0.834,3.357,5.92,1.465
0.192,-1.033,-1.28,118.469,-34.79,123.047
0.23,-1.097,-1.246,125.305,-37.476,129.517
0.229,-1.171,-1.147,127.93,-42.725,132.08
0.223,-1.263,-1.019,133.179,-49.744,129.15
0.204,-1.385,-0.789,140.32,-60.486,120.117
0.158,-1.438,-0.46,145.447,-74.951,107.727
0.031,-1.338,0.031,137.329,-83.252,95.093
-0.265,-1.089,0.762,120.483,-72.632,82.336
-0.665,-0.617,1.654,103.821,-44.678,76.721
-1.277,0.111,2.557,98.572,-6.348,89.294
-2.013,0.971,3.342,127.808,24.231,115.356
-2.69,1.94,3.658,188.721,37.354,158.447
-3.211,2.976,3.468,250.916,50.293,228.76
-3.684,3.975,2.801,280.884,93.14,323.181
-3.649,4,1.608,281.189,171.143,438.782
-2.926,4,0.276,260.193,256.409,576.111
-1.302,4,-0.8,228.333,284.973,662.659
0.957,4,-2.033,203.369,223.877,643.799
3.077,4,-3.256,150.391,111.389,494.507
3.88,3.861,-2.956,18.005,-44.189,208.13
3.145,3.543,-1.257,-176.697,-171.631,-118.103
1.227,2.962,0.781,-292.419,-243.896,-421.631
-0.926,2.133,2.39,-265.869,-306.152,-681.519
-2.221,1.037,2.423,-91.797,-332.397,-798.035
-2.774,0.131,1.312,78.247,-273.865,-710.876
-2.797,-0.112,0.295,87.28,-132.69,-482.361
-2.384,0.059,-0.157,-32.898,42.969,-197.998
-1.764,0.355,-0.093,-173.218,200.5,33.203
-1.075,0.715,0.154,-263.184,269.043,163.513
-0.524,0.984,0.358,-274.414,232.239,199.097
-0.188,1.101,0.438,-228.699,134.644,146.79
-0.046,1.108,0.406,-163.757,31.311,41.565
-0.054,1.018,0.286,-108.643,-42.786,-66.772
-0.17,0.859,0.144,-77.148,-80.017,-149.841
-0.305,0.673,0.05,-67.566,-88.44,-197.144
-0.435,0.5,0.016,-72.388,-81.055,-208.069
-0.449,0.36,0.006,-83.008,-65.857,-187.378
-0.32,0.271,-0.025,-93.018,-45.105,-145.508
-0.159,0.274,-0.085,-100.952,-17.944,-98.267
-0.002,0.312,-0.198,-106.995,10.559,-60.181
0.146,0.392,-0.315,-110.046,33.02,-36.316
0.242,0.476,-0.439,-109.558,42.114,-26.55
0.295,0.533,-0.542,-104.858,37.598,-30.701
0.297,0.56,-0.608,-98.694,22.766,-44.8
0.26,0.566,-0.669,-91.003,4.395,-64.819
0.209,0.536,-0.718,-83.435,-10.986,-82.764
0.147,0.486,-0.727,-75.745,-23.437,-97.412
0.12,0.411,-0.741,-70.251,-31.799,-106.14
0.12,0.32,-0.773,-68.176,-33.447,-105.774
0.115,0.23,-0.799,-66.895,-29.358,-101.135
0.122,0.15,-0.823,-65.002,-23.071,-93.933
0.129,0.098,-0.842,-59.448,-18.555,-81.482
0.185,0.097,-0.853,-48.584,-17.273,-64.27
0.143,0.064,-0.979,-36.072,-12.146,-50.842
0.204,0.104,-1,-21.729,-13.794,-41.26
0.173,0.088,-1.079,-4.639,-13.489,-36.499
0.102,0.037,-1.221,9.521,-9.277,-43.396
0.064,0.025,-1.18,16.541,-12.512,-51.636
0.031,0.023,-1.19,22.4,-23.315,-51.086
0.02,0.008,-1.174,29.968,-29.968,-44.922
0.062,-0.001,-1.172,35.522,-30.457,-33.569
0.106,-0.005,-1.177,39.734,-24.048,-17.761
0.169,0.011,-1.169,43.091,-14.221,-1.831
0.238,0.052,-1.163,44.922,-4.761,10.559
0.291,0.114,-1.16,46.509,2.319,18.555
0.324,0.199,-1.168,48.157,6.287,21.912
0.323,0.282,-1.173,50.476,8.179,20.325
0.293,0.344,-1.177,54.138,8.484,14.832
0.27,0.378,-1.185,58.533,6.897,9.827
0.24,0.386,-1.188,61.89,5.066,7.202
0.22,0.402,-1.182,61.646,4.7,6.348
0.193,0.441,-1.168,57.251,7.507,7.568
0.19,0.485,-1.16,51.514,13.489,11.23
0.196,0.516,-1.155,45.593,21.423,16.785
0.213,0.555,-1.13,38.757,28.137,22.156
0.241,0.584,-1.108,33.997,32.104,26.123
0.269,0.606,-1.09,31.555,32.959,27.466
0.286,0.63,-1.071,30.029,31.738,25.757
0.294,0.661,-1.055,28.259,30.029,21.973
0.293,0.69,-1.035,26.123,28.992,18.799
0.292,0.708,-1.024,24.414,28.442,15.991
0.285,0.718,-1.029,22.522,28.564,12.878
0.282,0.717,-1.036,19.409,28.076,9.827
0.278,0.699,-1.041,14.832,26.001,7.324
0.273,0.69,-1.025,9.094,22.827,6.042
0.275,0.688,-0.995,3.906,18.86,5.432
0.28,0.681,-0.96,0.916,15.259,4.272
0.276,0.675,-0.924,-0.854,12.634,2.441
0.275,0.653,-0.905,-0.977,10.803,0.61
0.258,0.65,-0.89,-1.648,9.277,-0.732
0.237,0.66,-0.871,-2.197,7.568,-2.014
0.227,0.652,-0.869,-1.404,5.737,-3.174
0.211,0.649,-0.871,-0.854,4.028,-5.371
0.193,0.642,-0.881,-1.404,1.953,-8.972
0.17,0.637,-0.883,-2.625,-1.038,-12.451
0.157,0.638,-0.877,-4.944,-3.357,-14.526
0.146,0.627,-0.865,-7.385,-5.249,-14.893
0.142,0.615,-0.843,-9.827,-6.958,-15.015
0.134,0.611,-0.816,-12.451,-8.911,-14.587
0.135,0.603,-0.799,-13.672,-9.521,-12.939
0.143,0.598,-0.785,-14.771,-8.911,-10.254
0.151,0.601,-0.768,-16.174,-7.568,-7.324
0.162,0.604,-0.752,-16.418,-6.714,-4.7
0.175,0.606,-0.743,-14.832,-6.714,-3.174
0.187,0.593,-0.748,-12.695,-7.263,-2.686
0.198,0.591,-0.75,-11.475,-7.568,-3.174
0.205,0.597,-0.752,-11.841,-7.812,-4.395
0.212,0.584,-0.765,-11.78,-6.836,-5.371
0.209,0.578,-0.77,-12.817,-5.127,-5.676
0.211,0.583,-0.771,-14.832,-3.906,-5.31
0.216,0.592,-0.77,-15.625,-2.625,-4.761
0.215,0.6,-0.777,-15.381,-1.343,-5.005
0.216,0.614,-0.8,-14.404,0.977,-5.737
0.211,0.63,-0.825,-13.794,3.54,-6.104
0.218,0.646,-0.853,-13.123,5.066,-5.798
0.236,0.664,-0.889,-11.841,5.737,-4.883
0.245,0.671,-0.929,-11.658,6.104,-5.188
0.245,0.663,-0.971,-12.695,6.287,-7.202
0.238,0.655,-0.995,-15.259,5.249,-9.155
-0.972,-0.278,1.769,252.441,-30.701,198.059
-1.302,0.481,2.253,256.226,12.024,214.417
-1.846,1.329,2.663,265.991,51.025,222.9
-2.397,2.171,2.938,288.574,61.768,228.027
-2.905,2.958,3.064,315.552,45.41,249.39
-3.355,3.801,2.86,341.553,35.4,298.218
-3.136,4,2.013,352.417,59.265,378.296
-2.269,4,0.991,336.487,117.737,484.07
-0.879,4,0.141,299.805,161.438,566.223
1.178,4,-1.456,255.554,165.771,595.215
3.329,4,-3.114,172.729,143.982,529.602
3.475,3.94,-2.722,-28.442,60.669,300.598
2.654,3.398,-0.902,-230.591,-48.401,-15.808
1.125,2.559,1.06,-292.358,-143.066,-286.011
-0.467,1.849,2.329,-231.75,-220.032,-507.141
-1.525,0.988,2.215,-71.594,-229.98,-598.206
-1.941,0.383,1.167,51.392,-145.02,-519.165
-2.031,0.338,0.215,33.02,0.671,-331.97
-1.704,0.477,-0.201,-62.317,122.07,-133.728
-1.18,0.721,-0.067,-159.119,171.814,13.123
-0.627,0.963,0.338,-219.177,161.133,86.365
-0.218,1.081,0.737,-226.196,118.652,88.684
0,1.078,0.907,-192.017,72.327,35.583
-0.026,1,0.85,-140.625,36.194,-39.795
-0.202,0.872,0.637,-91.98,11.353,-108.948
-0.419,0.759,0.396,-61.035,-2.258,-153.931
-0.591,0.616,0.206,-48.828,-4.7,-167.725
-0.678,0.494,0.081,-51.819,-1.038,-154.053
-0.681,0.428,0.011,-61.157,7.507,-123.108
-0.614,0.408,-0.017,-69.092,18.372,-85.266
-0.508,0.419,-0.041,-66.589,26.245,-49.988
-0.386,0.459,-0.069,-54.871,27.344,-24.17
-0.245,0.501,-0.133,-37.17,23.071,-8.789
-0.137,0.593,-0.215,-19.653,19.165,-3.845
-0.039,0.694,-0.338,-7.446,19.836,-7.507
0.001,0.727,-0.485,-1.16,24.719,-17.029
-0.059,0.791,-0.605,1.77,25.757,-33.325
-0.056,0.799,-0.612,8.606,11.78,-51.453
-0.018,0.767,-0.669,2.38,-4.333,-62.5
-0.01,0.711,-0.68,-3.967,-14.771,-71.655
0.003,0.63,-0.671,-11.78,-16.174,-78.247
0.001,0.594,-0.661,-17.883,-13.977,-79.224
-0.007,0.568,-0.652,-21.301,-12.329,-73.486
0.007,0.531,-0.652,-21.79,-11.78,-64.392
0.035,0.46,-0.688,-18.494,-8.972,-55.481
0.064,0.38,-0.75,-13.55,-4.211,-48.706
0.072,0.332,-0.817,-7.446,-1.526,-46.082
0.09,0.331,-0.894,-2.869,-1.892,-47.852
0.062,0.315,-0.967,1.648,-2.38,-53.711
-0.009,0.277,-1.038,7.996,-2.136,-64.087
-0.023,0.224,-1.072,18.982,-15.259,-71.167
-0.049,0.162,-1.121,27.71,-31.433,-67.81
-0.013,0.149,-1.149,30.029,-31.372,-58.838
0.001,0.208,-1.153,23.01,-16.418,-43.457
0.075,0.274,-1.125,17.578,-5.188,-22.583
0.162,0.349,-1.115,17.7,-1.892,-1.404
0.21,0.446,-1.124,17.395,2.93,11.536
0.248,0.559,-1.123,15.442,7.751,11.047
0.229,0.659,-1.106,16.602,4.578,5.066
0.182,0.739,-1.118,20.996,-2.93,-2.686
0.129,0.794,-1.153,24.658,-7.568,-11.23
0.08,0.837,-1.203,24.658,-8.789,-17.883
0.048,0.861,-1.247,19.409,-8.545,-19.531
0.018,0.881,-1.255,9.583,-8.301,-16.296
0.016,0.885,-1.211,-1.343,-9.216,-9.888
0.046,0.896,-1.133,-10.681,-11.047,-1.953
0.082,0.924,-1.046,-16.357,-11.78,6.165
0.139,0.931,-0.982,-17.822,-9.949,12.878
0.191,0.946,-0.947,-17.09,-6.47,18.127
0.25,0.97,-0.942,-18.188,-3.296,19.592
0.289,0.974,-0.943,-20.996,-1.343,17.7
0.304,0.953,-0.928,-25.818,-0.488,13.428
0.32,0.928,-0.883,-31.433,-2.197,8.667
0.327,0.894,-0.814,-36.377,-4.7,3.723
0.322,0.851,-0.743,-39.246,-5.432,-1.709
0.312,0.808,-0.676,-38.269,-4.333,-6.653
0.307,0.752,-0.629,-32.471,-3.845,-10.376
0.295,0.715,-0.599,-26.917,-2.869,-13.611
0.275,0.679,-0.582,-21.484,-0.549,-15.442
0.25,0.644,-0.584,-16.663,2.197,-15.015
0.248,0.621,-0.585,-14.16,5.066,-11.658
0.251,0.621,-0.573,-14.16,8.911,-6.897
0.257,0.635,-0.552,-14.343,13.428,-3.601
0.255,0.644,-0.537,-12.512,17.029,-2.563
0.246,0.662,-0.544,-8.179,18.25,-3.174
0.245,0.68,-0.567,-4.028,18.25,-4.211
0.239,0.693,-0.596,-1.343,18.677,-5.676
0.215,0.716,-0.621,-0.793,19.226,-9.216
0.188,0.719,-0.635,-0.244,17.639,-13.245
0.165,0.718,-0.631,1.404,13.184,-15.869
0.15,0.707,-0.617,4.089,8.179,-17.456
0.142,0.702,-0.615,6.897,5.554,-17.334
0.136,0.697,-0.628,8.423,5.249,-15.808
0.128,0.698,-0.647,8.301,5.737,-13.245
0.125,0.69,-0.654,6.958,5.737,-9.949
0.132,0.693,-0.64,5.066,5.798,-6.165
0.147,0.7,-0.621,3.662,6.409,-3.357
0.166,0.71,-0.615,4.333,7.996,-2.991
0.174,0.713,-0.641,5.981,9.46,-5.493
0.157,0.713,-0.669,6.714,9.338,-10.01
0.137,0.713,-0.671,6.409,6.47,-14.16
0.115,0.706,-0.639,6.348,2.136,-16.541
0.108,0.693,-0.612,8.789,-0.671,-17.09
0.1,0.688,-0.618,11.719,-0.488,-15.625
0.087,0.694,-0.642,12.512,1.709,-12.939
0.09,0.71,-0.669,11.169,4.211,-8.057
0.113,0.718,-0.684,8.179,6.47,-2.686
0.116,0.77,-0.701,1.77,10.803,4.578
0.143,0.808,-0.703,-1.16,13.855,6.775
0.168,0.835,-0.714,-2.563,14.221,4.272
0.17,0.853,-0.722,-3.601,11.841,0.427
0.164,0.855,-0.716,-4.089,8.057,-4.822
0.153,0.842,-0.695,-3.113,3.296,-9.949
0.135,0.84,-0.671,-0.671,-0.916,-13.916
0.124,0.844,-0.683,1.526,-2.808,-16.174
0.128,0.86,-0.717,0.916,-2.502,-15.93
0.13,0.875,-0.747,-4.089,-0.427,-13.306
0.143,0.905,-0.76,-11.841,3.479,-9.094
0.162,0.936,-0.762,-19.531,6.47,-5.188
0.287,-0.902,-1.645,106.934,-19.287,131.47
0.298,-1.007,-1.537,81.543,-7.874,121.643
0.259,-1.115,-1.263,58.167,-14.282,102.661
0.128,-1.145,-0.637,46.204,-35.034,77.942
-0.013,-1.22,0.163,49.194,-62.012,50.964
-0.27,-1.211,0.958,68.665,-75.378,38.147
-0.691,-1.014,1.734,99.426,-68.481,41.809
-1.16,-0.554,2.374,137.024,-46.509,62.134
-1.706,0.17,2.896,177.979,-18.433,99.304
-2.3,1.12,3.272,218.018,8.24,145.386
-2.904,2.217,3.459,253.113,31.494,202.881
-3.471,3.398,3.312,277.832,56.763,275.391
-3.642,4,2.566,290.833,97.839,371.033
-2.889,4,1.418,291.199,162.598,498.779
-1.486,4,0.303,285.339,222.168,609.68
0.6,4,-1.534,283.325,216.675,642.09
3.557,4,-3.971,259.46,161.865,529.602
4,4,-3.794,55.298,26.184,233.276
2.838,3.999,-1.214,-232.117,-132.324,-118.469
0.652,2.957,1.514,-345.337,-235.107,-423.828
-1.265,1.744,3.168,-278.503,-295.776,-655.945
-2.29,0.362,2.811,-72.449,-294.495,-707.703
-2.754,-0.301,1.548,64.392,-180.786,-556.152
-2.713,-0.355,0.39,35.339,8.667,-291.809
-2.054,-0.034,-0.136,-73.608,172.302,-24.109
-1.24,0.489,-0.052,-178.223,252.075,159.607
-0.506,0.933,0.26,-218.933,235.168,227.722
0.008,1.158,0.469,-190.735,152.954,189.697
0.181,1.198,0.486,-130.188,62.134,83.191
0.083,1.16,0.343,-72.449,-5.432,-33.203
-0.095,1.107,0.142,-37.415,-41.138,-119.812
-0.307,1.045,-0.026,-32.349,-45.532,-164.673
-0.477,0.988,-0.117,-48.523,-32.104,-173.279
-0.524,0.946,-0.16,-74.158,-16.235,-153.381
-0.49,0.922,-0.164,-98.083,-3.601,-118.042
-0.391,0.936,-0.152,-115.479,4.7,-84.106
-0.272,0.959,-0.149,-122.131,7.202,-61.035
-0.155,1.03,-0.158,-118.713,3.906,-51.514
-0.021,1.11,-0.213,-112.61,-0.916,-54.321
0.04,1.096,-0.3,-105.957,-4.15,-66.162
0.038,1.035,-0.377,-102.417,-9.644,-84.29
0.034,0.931,-0.411,-102.905,-19.653,-101.685
0.017,0.793,-0.418,-103.516,-30.884,-112.366
0.024,0.671,-0.423,-102.722,-38.94,-117.004
0.059,0.591,-0.464,-100.708,-39.063,-117.615
0.044,0.502,-0.548,-100.769,-28.748,-115.54
0.049,0.444,-0.628,-99.792,-14.709,-111.755
0.075,0.39,-0.729,-98.633,-3.113,-106.628
0.066,0.332,-0.825,-97.351,3.479,-102.295
0.012,0.285,-0.886,-93.506,2.258,-102.417
-0.008,0.232,-0.878,-84.167,-9.155,-102.783
-0.034,0.137,-0.855,-67.017,-24.719,-101.257
-0.063,0.063,-0.939,-50.476,-36.072,-98.633
-0.06,0.018,-0.884,-32.593,-46.692,-96.375
-0.025,0.018,-0.925,-16.663,-58.838,-87.524
-0.004,-0.006,-0.999,-0.732,-56.396,-76.416
0.013,-0.027,-1.11,2.747,-39.429,-65.918
0.059,0.019,-1.135,-1.953,-25.33,-50.842
0.139,0.065,-1.17,-8.362,-16.663,-32.349
0.235,0.094,-1.153,-12.146,-11.719,-17.09
0.272,0.12,-1.11,-11.108,-13.916,-10.864
0.254,0.136,-1.063,-7.629,-18.372,-10.254
0.244,0.104,-1.02,5.188,-28.687,-16.418
0.256,0.055,-1,23.437,-41.87,-25.696
0.23,0.022,-0.984,39.795,-48.828,-31.799
0.214,-0.005,-0.981,48.95,-48.767,-32.532
0.216,-0.027,-0.984,53.65,-40.71,-26.855
0.231,-0.018,-0.995,53.894,-26.428,-14.343
0.248,0.035,-1.012,51.697,-7.568,1.465
0.274,0.113,-1.054,49.377,12.512,15.93
0.276,0.207,-1.086,46.082,29.236,25.818
0.266,0.323,-1.104,42.236,40.405,30.945
0.259,0.459,-1.086,39.612,45.41,33.203
0.258,0.549,-1.068,41.016,45.471,33.508
0.263,0.623,-1.065,43.274,42.969,32.532
0.271,0.691,-1.073,40.955,39.185,29.297
0.261,0.758,-1.081,34.973,35.828,25.024
0.236,0.791,-1.088,28.198,31.677,20.386
0.231,0.8,-1.101,22.461,25.696,16.541
0.247,0.786,-1.113,16.907,18.86,14.526
0.261,0.758,-1.103,9.949,12.207,12.39
0.273,0.72,-1.071,2.014,5.249,8.545
0.275,0.674,-1.025,-5.127,-1.953,3.723
0.278,0.636,-0.964,-11.169,-8.911,-0.305
0.279,0.591,-0.896,-15.381,-16.052,-2.441
0.276,0.555,-0.821,-17.334,-22.217,-3.845
0.283,0.52,-0.749,-17.029,-26.001,-5.31
0.291,0.49,-0.707,-14.465,-26.489,-7.019
0.289,0.474,-0.694,-12.024,-25.146,-8.545
0.278,0.475,-0.695,-10.559,-23.193,-10.071
0.266,0.478,-0.685,-9.521,-21.179,-9.46
0.259,0.482,-0.667,-7.69,-19.104,-6.531
0.255,0.494,-0.657,-5.615,-16.174,-2.808
0.254,0.516,-0.664,-4.028,-13.062,0.977
0.248,0.557,-0.68,-3.54,-9.827,4.333
0.242,0.589,-0.697,-3.296,-7.874,6.348
0.242,0.612,-0.714,-2.991,-6.348,7.812
0.248,0.637,-0.721,-3.906,-5.493,8.85
0.254,0.655,-0.719,-4.7,-3.906,9.766
0.261,0.668,-0.708,-4.211,-1.953,10.498
0.275,0.673,-0.7,-2.625,-0.61,10.559
0.283,0.67,-0.701,-0.122,-0.366,10.193
0.289,0.672,-0.709,1.892,-0.366,9.46
0.285,0.674,-0.724,2.563,0.244,8.484
0.273,0.674,-0.738,1.526,1.953,8.545
0.273,0.677,-0.74,-0.488,4.333,10.071
0.275,0.68,-0.745,-2.747,6.47,12.085
0.281,0.677,-0.753,-5.005,6.958,13.184
0.279,0.671,-0.788,-7.812,5.066,12.695
0.276,0.687,-0.807,-11.902,0.854,10.925
0.273,0.703,-0.81,-14.832,-4.211,8.667
0.264,0.71,-0.802,-14.221,-9.644,5.92
0.259,0.721,-0.741,-10.925,-13.794,3.723
0.272,0.697,-0.754,-15.137,-15.137,3.784
0.237,0.667,-0.706,-6.775,-19.409,3.845
0.246,0.656,-0.718,-5.981,-18.25,4.456
0.258,0.63,-0.69,-2.625,-16.541,5.92
0.259,0.615,-0.698,-1.404,-14.404,8.545
0.27,0.588,-0.692,0.183,-11.414,10.437
0.354,2.118,-0.523,172.241,-67.932,123.779
0.34,2.157,-0.738,174.438,-33.447,53.833
0.262,2.005,-0.843,158.508,-5.31,-20.02
0.113,1.726,-0.924,129.272,15.137,-73.792
-0.008,1.319,-1.077,112.854,30.273,-99.487
-0.178,0.927,-1.136,96.191,35.828,-96.497
-0.322,0.546,-1.237,95.215,29.724,-79.651
-0.424,0.188,-1.348,105.774,9.766,-57.617
-0.52,-0.13,-1.279,120.117,-25.269,-37.781
-0.599,-0.437,-1.047,135.62,-63.293,-23.132
-0.638,-0.729,-0.696,154.541,-95.581,-13.367
-0.696,-0.993,-0.183,169.739,-120.972,-3.113
-0.765,-1.194,0.402,176.453,-136.963,11.597
-0.964,-1.404,1.008,170.288,-142.212,29.968
-1.189,-1.605,1.67,154.236,-141.357,38.086
-1.397,-1.812,2.367,139.954,-144.958,33.569
-1.591,-1.976,3.107,141.968,-156.25,31.006
-1.685,-1.9,3.707,169.678,-176.147,36.377
-1.431,-1.329,4,215.942,-208.862,52.246
-0.753,-0.452,4,258.606,-258.423,78.125
0.275,0.497,4,254.028,-302.856,109.314
1.141,1.517,4,205.2,-305.969,136.78
1.734,2.348,4,144.958,-248.108,147.156
2.104,2.81,2.938,66.833,-152.527,119.995
1.848,2.413,2.203,-51.453,-36.316,50.293
0.976,1.434,2.148,-171.326,104.187,-47.424
0.15,0.202,2,-247.803,243.774,-150.452
-0.731,-0.83,1.929,-265.381,340.271,-239.807
-1.428,-1.45,1.583,-212.891,368.164,-286.499
-1.561,-1.457,1.04,-131.104,323.425,-255.371
-1.488,-1.102,0.658,-100.708,217.285,-138.855
-1.231,-0.58,0.844,-144.043,96.375,15.869
-0.78,-0.381,0.967,-196.533,12.695,133.545
-0.555,-0.338,0.995,-236.816,-31.86,170.776
-0.306,-0.337,1.108,-244.324,-51.575,144.165
-0.122,-0.293,1.151,-227.966,-31.677,79.895
-0.051,-0.23,1.13,-199.097,13.123,5.493
-0.085,-0.132,1.021,-170.593,66.04,-51.88
-0.225,-0.079,0.865,-153.198,112.244,-85.449
-0.342,-0.044,0.724,-144.104,137.878,-100.281
-0.394,-0.014,0.588,-135.559,136.719,-100.159
-0.369,0.043,0.499,-127.441,114.319,-84.961
-0.276,0.134,0.448,-125.122,84.29,-55.603
-0.188,0.253,0.402,-128.357,58.167,-19.531
-0.09,0.371,0.375,-133.545,40.039,9.338
-0.032,0.467,0.361,-136.169,29.785,23.193
0.079,0.514,0.36,-132.629,26.367,21.057
0.14,0.585,0.364,-116.638,24.841,9.46
0.219,0.649,0.338,-99.365,29.968,-4.944
0.247,0.726,0.286,-87.463,44.373,-16.235
0.22,0.77,0.169,-80.688,64.453,-26.306
0.141,0.807,0.092,-76.05,83.74,-38.757
0.1,0.868,0.021,-75.195,95.52,-50.964
0.026,0.887,-0.102,-72.205,97.961,-56.824
-0.034,0.888,-0.184,-69.458,94.849,-58.044
-0.024,0.908,-0.27,-70.74,87.036,-56.213
-0.034,0.913,-0.363,-71.411,76.294,-51.331
-0.037,0.897,-0.433,-70.068,65.857,-47.974
0.026,0.861,-0.481,-64.514,57.068,-50.232
-0.044,0.794,-0.498,-49.988,49.377,-56.58
0.02,0.91,-0.56,-31.555,46.814,-60.608
0.131,0.694,-0.563,1.892,40.405,-75.5
0.13,0.734,-0.596,8.606,32.715,-72.449
0.018,0.79,-0.616,8.789,39.307,-48.096
0.002,0.863,-0.6,14.099,44.067,-33.081
-0.008,0.921,-0.553,24.719,36.621,-27.832
-0.023,0.99,-0.518,30.273,22.095,-20.813
-0.01,1.056,-0.475,29.419,9.338,-8.362
0.018,1.116,-0.391,21.912,-0.305,4.456
0.036,1.181,-0.312,12.024,-6.775,12.878
0.05,1.219,-0.221,10.498,-11.23,13.794
0.079,1.199,-0.121,17.883,-14.771,7.812
0.088,1.183,-0.047,27.466,-16.235,1.953
0.103,1.212,0.024,36.743,-14.832,0.61
0.12,1.288,0.093,45.105,-13.062,1.587
0.138,1.373,0.129,51.392,-14.16,6.836
0.176,1.424,0.153,55.847,-20.752,11.658
0.2,1.464,0.175,49.683,-26.978,17.639
0.23,1.465,0.211,39.49,-28.137,22.156
0.253,1.464,0.229,31.494,-25.33,22.522
0.266,1.419,0.233,26.672,-20.935,18.921
0.27,1.384,0.239,20.447,-16.357,13.855
0.263,1.346,0.258,12.451,-11.78,9.399
0.266,1.31,0.269,5.31,-8.667,6.226
0.269,1.271,0.267,0.305,-8.362,5.615
0.275,1.233,0.273,-4.395,-10.193,6.531
0.278,1.195,0.3,-8.118,-11.23,6.409
0.285,1.145,0.32,-9.46,-10.62,4.517
0.289,1.088,0.322,-7.568,-7.324,1.038
0.27,1.074,0.315,-4.089,-2.808,-2.625
0.263,1.072,0.308,0.916,1.465,-7.263
0.25,1.079,0.291,3.235,4.639,-11.414
0.232,1.078,0.281,0.61,7.141,-13.428
0.214,1.064,0.284,-5.005,8.362,-13.55
0.209,1.043,0.293,-9.949,7.385,-11.719
0.215,1.032,0.302,-14.038,5.249,-8.301
0.213,1.025,0.305,-17.944,4.089,-4.761
0.214,1.02,0.299,-21.545,4.272,-2.502
0.205,1.016,0.303,-23.499,4.578,-2.869
0.201,1.005,0.304,-24.048,4.395,-6.287
0.208,0.993,0.298,-22.888,3.784,-11.108
0.217,0.983,0.294,-21.79,3.357,-15.076
0.22,0.976,0.281,-21.057,4.15,-17.395
0.219,0.974,0.271,-20.569,4.822,-18.005
0.221,0.979,0.268,-20.264,3.967,-16.968
0.235,0.982,0.26,-20.264,3.479,-15.686
0.252,0.99,0.247,-21.851,4.333,-13.977
0.259,1.008,0.23,-25.085,6.775,-11.963
0.25,1.022,0.199,-28.381,9.888,-10.681
0.243,1.029,0.158,-31.86,12.329,-11.047
0.242,1.023,0.105,-33.691,13.306,-13.55
0.237,1.013,0.057,-34.485,13.672,-16.968
0.235,1.007,0.011,-33.936,14.16,-19.897
0.231,1.004,-0.029,-31.799,13.733,-21.79
0.216,0.995,-0.073,-27.954,13.123,-22.156
0.198,0.998,-0.135,-23.376,12.512,-21.118
0.179,1.01,-0.195,-19.775,11.047,-18.677
0.173,1.029,-0.255,-18.311,8.728,-15.686
0.173,1.032,-0.298,-17.761,6.165,-11.902
0.226,1.315,-1.05,54.382,-41.87,30.029
0.195,1.275,-1.132,55.115,-36.926,33.569
0.108,1.221,-1.173,58.899,-35.767,32.288
-0.005,1.103,-1.217,61.646,-36.987,20.386
-0.102,0.953,-1.279,63.66,-41.382,3.296
-0.192,0.757,-1.285,64.941,-50.354,-11.292
-0.289,0.516,-1.229,62.195,-61.401,-21.729
-0.38,0.232,-1.148,58.044,-73.73,-26.978
-0.407,-0.063,-1.005,51.636,-87.402,-27.954
-0.448,-0.339,-0.757,34.18,-98.145,-24.902
-0.573,-0.597,-0.249,1.282,-101.318,-20.264
-0.774,-0.932,0.504,-28.381,-98.938,-23.132
-1.036,-1.331,1.379,-27.832,-101.685,-37.109
-1.305,-1.655,2.186,11.292,-116.699,-49.133
-1.606,-1.793,2.986,76.477,-142.09,-36.926
-1.871,-1.579,3.734,161.438,-177.551,12.634
-1.904,-0.815,4,254.944,-222.473,96.436
-1.571,0.411,4,336.365,-269.348,204.529
-0.832,1.77,4,382.385,-311.584,304.993
0.182,2.817,4,377.441,-331.36,358.643
0.831,3.537,4,327.759,-302.856,349.182
1.596,3.916,3.879,257.812,-228.333,289.795
2.045,3.742,2.326,159.546,-134.338,184.204
1.693,3.043,1.673,19.897,-41.382,43.213
0.919,1.921,1.81,-137.329,63.721,-104.492
-0.015,0.48,2.121,-228.21,169.983,-240.662
-0.867,-0.802,2.164,-219.849,240.967,-352.234
-1.328,-1.456,1.678,-127.747,264.587,-399.292
-1.434,-1.404,1.159,-31.86,243.225,-332.275
-1.457,-0.931,0.937,-11.536,180.115,-169.434
-1.322,-0.443,0.926,-51.697,102.112,23.682
-1.109,-0.163,0.968,-106.628,33.936,165.771
-0.815,-0.029,1.07,-144.226,-17.639,213.928
-0.535,0.023,1.168,-150.94,-44.373,180.054
-0.296,0.059,1.184,-132.812,-39.551,102.417
-0.193,0.093,1.142,-106.079,-10.254,18.311
-0.183,0.115,1.077,-78.369,28.503,-51.575
-0.156,0.186,0.955,-53.101,63.049,-99.182
-0.186,0.249,0.771,-39.307,85.815,-119.141
-0.219,0.287,0.619,-39.551,95.703,-119.324
-0.195,0.279,0.501,-44.556,91.125,-108.459
-0.138,0.285,0.404,-48.157,76.66,-88.806
-0.066,0.372,0.325,-52.551,62.866,-62.073
-0.011,0.47,0.228,-57.19,56.335,-35.339
0.012,0.549,0.184,-59.448,54.077,-17.395
0.021,0.597,0.192,-57.007,53.101,-13.367
0.041,0.643,0.182,-47.729,53.894,-19.165
0.082,0.681,0.119,-33.203,58.472,-26.611
0.083,0.725,0.06,-23.621,67.444,-31.86
0.072,0.771,-0.008,-20.935,78.003,-34.729
0.041,0.8,-0.08,-21.423,83.252,-37.292
0.092,0.868,-0.136,-22.339,79.407,-40.222
0.176,0.933,-0.24,-23.315,66.956,-39.917
0.226,0.973,-0.288,-27.893,53.955,-34.363
0.289,1.014,-0.3,-35.645,45.41,-27.222
0.296,1.062,-0.321,-44.373,41.626,-20.508
0.265,1.1,-0.348,-44.434,41.809,-21.545
0.237,1.125,-0.355,-34.668,43.945,-34.973
0.223,1.21,-0.398,-22.278,49.988,-48.401
0.171,1.251,-0.443,-14.587,59.448,-59.631
0.153,1.083,-0.405,-1.77,47.729,-87.036
0.091,1.068,-0.422,1.587,39.978,-79.956
0.083,1.049,-0.45,-11.475,50.537,-47.668
0.144,1.033,-0.422,-26.917,49.438,-22.461
0.14,1.007,-0.411,-32.227,32.043,-4.944
0.201,1.036,-0.386,-33.203,16.479,10.376
0.248,1.078,-0.332,-35.583,10.559,23.01
0.265,1.076,-0.272,-35.278,9.705,27.527
0.261,1.054,-0.234,-27.161,9.216,21.484
0.259,1.028,-0.21,-14.465,7.568,9.216
0.268,1.019,-0.165,-3.601,5.737,-1.465
0.243,1.038,-0.129,3.479,4.211,-5.981
0.249,1.038,-0.077,8.484,0.427,-6.287
0.263,1.063,-0.023,9.094,-6.592,0.366
0.267,1.107,0.029,2.319,-10.071,18.555
0.303,1.127,0.104,-6.775,-11.963,36.804
0.324,1.149,0.163,-11.536,-15.808,50.598
0.354,1.161,0.194,-12.024,-19.409,58.044
0.381,1.171,0.215,-10.681,-19.775,57.678
0.395,1.164,0.231,-9.399,-17.456,49.194
0.395,1.147,0.249,-7.324,-13.123,36.072
0.381,1.126,0.251,-4.272,-7.019,22.095
0.357,1.093,0.237,-2.197,0.549,10.681
0.318,1.06,0.206,-2.319,7.629,2.563
0.278,1.053,0.217,-4.028,12.207,-2.136
0.238,1.05,0.214,-4.211,11.597,-3.052
0.231,1.039,0.191,-2.014,4.639,-0.854
0.247,1.018,0.181,-3.723,-2.38,4.456
0.256,1.005,0.188,-7.69,-6.042,9.644
0.256,1.003,0.199,-10.681,-7.629,11.597
0.267,1.014,0.213,-11.475,-7.324,9.399
0.279,1.012,0.214,-10.498,-5.615,4.456
0.268,0.988,0.202,-10.254,-2.625,-1.343
0.262,0.964,0.197,-10.437,-0.122,-7.08
0.25,0.944,0.194,-11.108,1.648,-12.451
0.235,0.931,0.189,-12.329,2.563,-15.869
0.229,0.927,0.197,-13.733,1.77,-16.541
0.223,0.897,0.207,-13.672,0,-15.015
0.229,0.858,0.194,-10.803,-1.282,-11.841
0.233,0.847,0.195,-7.263,-2.319,-8.728
0.235,0.859,0.206,-4.578,-2.502,-6.714
0.241,0.887,0.22,-2.319,-2.441,-5.859
0.254,0.912,0.232,-1.282,-2.319,-5.432
0.258,0.926,0.244,-1.648,-1.709,-4.395
0.266,0.935,0.25,-2.502,0.488,-2.93
0.274,0.953,0.257,-3.296,2.38,-1.831
0.271,0.971,0.261,-4.578,3.54,-0.793
0.27,0.979,0.265,-5.554,3.174,-0.977
0.277,0.982,0.263,-6.409,2.258,-1.282
0.285,0.976,0.259,-6.653,1.953,-1.587
0.293,0.974,0.255,-7.324,2.991,-1.587
0.286,0.973,0.243,-7.751,4.822,-1.343
0.278,0.969,0.24,-7.874,6.775,-1.648
0.271,0.964,0.23,-6.714,7.996,-2.197
0.261,0.967,0.227,-5.188,8.911,-2.686
0.258,0.986,0.229,-4.089,9.705,-2.441
0.254,1.01,0.214,-4.089,10.193,-1.099
0.253,1.031,0.21,-5.798,9.949,1.465
0.271,1.046,0.218,-7.263,9.277,3.54
0.213,0.699,-1.659,126.892,-106.14,24.902
0.273,0.54,-1.739,121.643,-107.544,27.161
0.201,0.296,-1.689,106.14,-92.896,29.236
0.028,-0.111,-1.446,88.623,-64.575,31.494
-0.262,-0.697,-0.97,73.059,-33.447,28.809
-0.619,-1.297,-0.262,60.303,-15.869,20.081
-1.026,-1.822,0.551,62.012,-12.878,19.165
-1.407,-2.079,1.371,83.618,-21.179,30.09
-1.856,-2.099,2.25,113.098,-41.931,48.95
-2.224,-2.019,3.18,148.315,-78.064,70.435
-2.496,-1.724,3.997,193.481,-133.606,105.53
-2.615,-1.024,4,240.54,-197.205,162.292
-2.129,0.209,4,297.241,-258.118,234.375
-1.183,1.579,4,357.056,-321.167,296.57
0.104,2.756,4,349.182,-360.779,295.715
1.796,3.978,4,284.302,-343.384,235.107
3.466,4,3.328,257.996,-279.053,162.109
3.132,3.465,1.885,157.715,-161.438,61.523
2.256,2.321,2.272,-82.581,45.593,-90.088
0.841,0.527,2.444,-247.559,256.836,-242.065
-0.626,-0.931,2.358,-246.399,381.958,-362.488
-1.496,-1.617,1.844,-150.391,422.424,-433.838
-1.891,-1.445,1.141,-31.006,371.033,-375.732
-1.876,-0.841,0.737,1.77,258.667,-177.185
-1.588,-0.319,0.713,-64.087,132.568,60.913
-1.173,-0.104,0.871,-152.344,26.428,232.422
-0.72,-0.091,1.098,-205.505,-40.161,280.579
-0.365,-0.167,1.252,-212.585,-61.768,222.229
-0.177,-0.206,1.27,-190.918,-36.377,116.089
-0.114,-0.162,1.168,-158.264,18.311,15.686
-0.193,-0.078,1.002,-131.531,77.515,-55.847
-0.358,-0.019,0.801,-116.577,121.399,-96.191
-0.471,-0.005,0.611,-109.802,139.16,-110.168
-0.526,0.005,0.479,-106.262,129.333,-104.492
-0.477,0.028,0.35,-102.966,101.013,-82.458
-0.375,0.071,0.274,-99.121,68.542,-50.659
-0.226,0.171,0.249,-96.558,41.321,-17.517
-0.096,0.301,0.233,-92.224,23.437,10.437
0.018,0.457,0.223,-88.562,15.625,28.809
0.085,0.594,0.22,-81.909,15.686,32.898
0.141,0.72,0.244,-70.251,20.935,21.545
0.191,0.839,0.218,-55.359,31.921,1.77
0.172,0.928,0.158,-46.387,47.668,-17.822
0.123,1.006,0.106,-43.03,62.317,-36.316
0.065,1.056,0.03,-42.297,72.693,-53.528
-0.008,1.081,-0.052,-42.053,77.332,-66.772
-0.071,1.064,-0.125,-41.199,75.623,-74.402
-0.074,1.042,-0.177,-37.72,68.054,-76.66
-0.023,1.032,-0.23,-31.494,55.969,-73.669
-0.079,1.026,-0.254,-23.804,41.016,-65.063
-0.009,1.163,-0.282,-20.325,28.442,-49.377
0.133,1.025,-0.283,2.136,17.212,-45.532
0.129,1.07,-0.313,-1.16,3.357,-39.185
0.116,1.142,-0.357,-16.846,6.104,-10.986
0.157,1.194,-0.372,-22.705,15.442,0.122
0.13,1.18,-0.378,-19.165,12.268,-2.625
0.127,1.152,-0.344,-11.902,6.531,-15.076
0.13,1.149,-0.295,-8.789,4.456,-25.757
0.12,1.174,-0.287,-4.15,3.662,-30.884
0.101,1.209,-0.276,-0.732,2.747,-28.015
0.068,1.222,-0.239,-0.732,1.221,-20.386
0.073,1.213,-0.198,0.793,-1.953,-14.893
0.099,1.222,-0.167,4.333,-6.042,-10.071
0.13,1.162,-0.135,9.216,-9.094,-7.996
0.164,1.162,-0.112,6.409,-10.925,-3.784
0.173,1.148,-0.073,5.31,-9.705,-0.61
0.19,1.146,-0.033,5.066,-7.263,2.38
0.195,1.111,-0.005,6.531,-5.371,2.258
0.209,1.111,0.016,4.333,-5.493,5.798
0.207,1.092,0.073,0.854,-5.859,10.132
0.195,1.074,0.14,-4.517,-6.653,17.334
0.197,1.056,0.184,-0.61,-8.667,25.452
0.208,1.049,0.211,6.592,-10.254,32.593
0.216,1.064,0.236,13.611,-10.864,38.025
0.218,1.099,0.248,19.714,-9.766,40.161
0.228,1.143,0.257,23.193,-7.08,37.659
0.236,1.178,0.26,21.973,-4.089,32.898
0.224,1.186,0.262,17.09,-1.038,26.855
0.215,1.163,0.269,11.536,2.075,19.165
0.204,1.119,0.271,7.08,3.784,10.498
0.195,1.077,0.278,3.662,4.7,3.296
0.185,1.039,0.284,1.221,5.859,-0.122
0.174,0.997,0.27,1.404,6.042,-1.343
0.17,0.965,0.259,2.686,5.31,-2.014
0.154,0.949,0.257,3.54,5.127,-2.502
0.142,0.947,0.255,5.31,5.249,-2.93
0.137,0.947,0.246,7.996,4.517,-3.174
0.133,0.939,0.245,9.949,3.601,-3.357
0.13,0.937,0.253,11.047,2.38,-3.662
0.132,0.942,0.262,11.108,0.61,-3.784
0.132,0.949,0.272,10.132,-0.488,-3.174
0.133,0.951,0.282,8.423,-1.343,-2.869
0.131,0.957,0.295,7.935,-2.136,-3.296
0.126,0.963,0.295,6.897,-2.319,-4.089
0.13,0.966,0.299,5.249,-2.319,-5.432
0.13,0.964,0.305,3.296,-2.319,-6.775
0.129,0.957,0.309,1.465,-2.136,-8.118
0.134,0.951,0.321,-0.122,-1.892,-9.338
0.139,0.942,0.333,-1.221,-1.648,-9.338
0.147,0.93,0.336,-1.953,-0.854,-8.118
0.15,0.927,0.334,-2.502,-0.183,-6.531
0.15,0.927,0.34,-3.113,0.732,-5.432
0.147,0.919,0.343,-2.014,1.465,-4.944
0.147,0.914,0.333,0.61,1.526,-4.761
0.144,0.914,0.319,2.808,1.892,-4.089
0.132,0.923,0.316,3.174,1.831,-2.808
0.121,0.933,0.31,2.563,1.16,-1.648
0.123,0.943,0.31,1.282,-0.122,0.305
0.128,0.95,0.312,-1.099,-1.404,2.747
0.127,0.948,0.312,-4.15,-1.282,4.333
0.128,0.951,0.314,-6.531,-0.305,4.272
0.126,0.954,0.318,-7.507,0.671,2.319
0.119,0.949,0.332,-7.507,1.648,-0.305
0.114,0.937,0.338,-5.737,1.953,-2.258
0.111,0.928,0.33,-2.93,2.014,-3.174
0.109,0.927,0.321,-0.793,1.831,-3.052
0.103,0.937,0.318,-0.427,1.282,-2.075
0.101,0.942,0.304,-0.549,0.427,-0.977
0.105,0.944,0.286,-1.709,-1.038,0.244
-1.206,-2.098,0.69,89.233,-94.421,-11.23
-1.52,-2.336,1.672,122.559,-125.61,23.315
-1.788,-2.247,2.612,170.776,-156.616,64.331
-2.084,-1.907,3.524,217.957,-183.044,112.244
-2.35,-1.435,4,250.549,-209.167,159.729
-2.457,-0.621,4,282.959,-237.305,206.97
-1.939,0.616,4,319.702,-271.057,255.188
-0.96,1.946,4,338.135,-309.204,289.246
0.569,3.152,4,313.66,-326.721,275.085
1.732,3.904,4,265.076,-283.875,211.426
2.515,3.998,3.398,178.406,-168.396,114.807
2.473,3.231,2.471,30.701,-35.217,-8.484
1.544,1.807,2.331,-140.32,97.595,-135.986
0.341,0.11,2.423,-252.991,231.812,-248.291
-0.634,-1.03,2.189,-252.625,322.021,-318.115
-1.233,-1.386,1.589,-158.203,330.566,-312.5
-1.35,-0.937,1.043,-78.247,272.705,-207.642
-1.296,-0.361,0.895,-88.379,184.937,-40.833
-1.112,-0.038,0.953,-149.231,97.29,112.854
-0.823,0.008,1.128,-201.233,27.649,185.852
-0.536,-0.052,1.26,-217.224,-11.78,166.565
-0.321,-0.156,1.263,-200.562,-12.695,94.91
-0.245,-0.2,1.156,-173.035,19.409,14.954
-0.273,-0.155,1.02,-148.621,59.082,-51.941
-0.331,-0.057,0.857,-134.216,89.661,-91.553
-0.396,0.014,0.661,-130.432,106.445,-99.792
-0.384,0.03,0.486,-132.141,105.652,-89.844
-0.339,0.035,0.361,-130.554,88.196,-73.975
-0.26,0.061,0.263,-124.878,66.711,-55.298
-0.146,0.106,0.171,-115.417,51.636,-35.828
-0.039,0.208,0.102,-104.187,44.861,-17.7
0.054,0.364,0.028,-92.346,44.739,-3.601
0.057,0.5,-0.036,-83.557,50.842,2.808
0.034,0.608,-0.031,-77.515,59.753,-1.465
0.027,0.695,-0.003,-70.862,64.697,-14.282
0.031,0.786,0.006,-62.256,66.284,-26.794
0.037,0.891,-0.026,-54.81,69.519,-32.776
0.001,0.959,-0.077,-54.626,75.012,-34.729
-0.014,1.006,-0.113,-58.716,77.271,-37.72
-0.004,1.021,-0.167,-64.209,74.89,-43.457
-0.01,0.991,-0.251,-67.383,70.068,-49.622
0.002,0.978,-0.312,-67.261,63.416,-57.007
0.001,0.963,-0.394,-61.096,56.03,-63.477
0.012,0.946,-0.457,-48.523,48.096,-67.749
0.034,0.93,-0.502,-33.142,40.283,-68.665
0.025,0.935,-0.529,-19.287,34.546,-65.552
0.021,0.952,-0.52,-8.118,29.663,-59.692
0.009,0.981,-0.508,1.099,25.024,-52.49
0.003,1.025,-0.482,6.042,18.799,-45.166
-0.004,1.07,-0.473,7.629,13.306,-38.147
-0.012,1.097,-0.458,7.202,8.911,-32.166
0.002,1.106,-0.448,6.897,4.028,-28.076
0.015,1.119,-0.436,8.606,-2.075,-25.879
0.078,1.11,-0.386,10.803,-9.338,-24.414
0.006,1.14,-0.392,16.113,-11.597,-19.348
0.089,1.071,-0.273,33.02,-25.757,-25.452
0.093,1.126,-0.331,32.471,-18.555,-10.498
0.152,1.186,-0.333,23.315,-1.587,9.766
0.148,1.205,-0.285,24.048,-2.747,20.691
0.152,1.189,-0.255,28.564,-9.705,23.315
0.202,1.175,-0.201,28.992,-15.259,24.78
0.213,1.201,-0.11,28.87,-18.494,28.015
0.212,1.214,-0.032,28.748,-20.02,29.236
0.214,1.221,0.035,29.419,-23.071,28.259
0.237,1.236,0.109,31.006,-28.137,27.1
0.263,1.272,0.191,30.396,-31.982,30.518
0.298,1.32,0.255,28.687,-32.227,36.621
0.33,1.359,0.271,25.879,-27.466,42.114
0.349,1.372,0.261,20.813,-20.508,43.274
0.368,1.372,0.245,13.55,-13.367,38.452
0.357,1.353,0.236,4.883,-5.981,30.457
0.353,1.284,0.241,0.061,-3.418,16.479
0.338,1.189,0.235,-3.845,-2.136,2.991
0.322,1.102,0.234,-8.545,1.953,-5.554
0.279,1.036,0.246,-11.658,6.836,-10.376
0.24,0.971,0.234,-10.193,9.827,-12.939
0.224,0.917,0.197,-7.08,10.864,-12.268
0.214,0.888,0.178,-5.676,10.986,-8.24
0.204,0.867,0.164,-5.249,10.803,-3.357
0.19,0.859,0.178,-5.31,10.132,0.061
0.176,0.868,0.193,-3.601,8.728,2.747
0.176,0.889,0.187,-1.282,7.019,5.127
0.177,0.912,0.185,-1.282,6.104,7.263
0.169,0.924,0.187,-3.418,6.348,7.69
0.167,0.927,0.202,-6.042,6.775,5.554
0.165,0.933,0.222,-7.568,7.141,1.77
0.152,0.922,0.229,-7.324,8.24,-1.526
0.142,0.905,0.223,-6.104,8.972,-4.028
0.135,0.892,0.222,-4.456,8.24,-5.981
0.127,0.881,0.231,-2.625,6.775,-6.653
0.124,0.878,0.23,-0.244,5.188,-5.493
0.132,0.895,0.233,1.404,3.113,-3.296
0.14,0.913,0.222,2.441,1.648,-1.038
0.144,0.924,0.21,2.319,0.977,0.061
0.141,0.937,0.208,1.77,0.916,-0.427
0.131,0.943,0.197,1.221,0.916,-1.648
0.131,0.938,0.18,0.793,-0.244,-2.625
0.125,0.925,0.178,-0.61,-1.526,-3.052
0.124,0.899,0.194,-1.221,-2.625,-2.502
0.135,0.882,0.199,0.427,-3.845,-0.854
0.145,0.88,0.2,2.991,-4.211,2.38
0.153,0.899,0.206,4.883,-4.15,5.493
0.159,0.923,0.206,6.348,-4.272,8.057
0.167,0.943,0.207,7.08,-4.15,9.216
0.174,0.958,0.207,7.202,-3.723,9.216
0.181,0.973,0.215,6.958,-2.808,8.24
0.181,0.985,0.212,5.981,-1.587,7.019
0.176,0.995,0.219,3.723,-0.061,5.676
0.169,0.997,0.235,1.404,1.099,4.456
0.161,0.985,0.245,0.488,1.648,3.479
0.155,0.973,0.242,1.831,1.831,3.113
0.153,0.974,0.236,3.235,1.953,3.845
0.148,0.984,0.233,4.211,1.953,4.944
0.145,0.994,0.232,4.578,1.892,5.92
0.147,1,0.235,4.7,1.343,6.226
0.15,1.008,0.238,4.272,0.61,6.409
0.16,1.018,0.243,3.662,0.061,6.775
0.169,1.021,0.244,2.686,0.244,7.385
0.182,1.03,0.251,1.526,0.488,7.629
-0.173,1.759,-0.979,81.665,-3.723,5.188
-0.223,1.764,-1.061,79.834,-21.79,-1.282
-0.234,1.718,-1.118,80.139,-41.748,-4.089
-0.212,1.643,-1.19,82.275,-61.951,-2.502
-0.141,1.534,-1.267,85.144,-81.909,2.747
-0.055,1.403,-1.366,87.708,-97.778,14.404
0.039,1.25,-1.51,96.68,-108.643,24.048
0.123,1.035,-1.725,107.117,-111.328,27.161
0.144,0.735,-1.909,113.159,-103.76,19.043
0.094,0.296,-1.948,114.99,-85.083,-1.099
-0.149,-0.376,-1.756,118.896,-56.396,-28.076
-0.561,-1.252,-1.289,123.84,-32.776,-58.655
-1.08,-2.025,-0.517,129.456,-35.217,-82.275
-1.567,-2.536,0.407,155.64,-67.627,-77.698
-2.049,-2.626,1.434,197.327,-117.493,-28.015
-2.527,-2.368,2.544,227.417,-173.889,56.396
-2.916,-1.944,3.638,241.577,-240.295,150.391
-3.217,-1.428,4,249.023,-309.448,239.624
-3.275,-0.58,4,258.911,-366.638,311.768
-2.468,0.667,4,293.457,-412.231,358.459
-1.324,1.936,4,309.57,-446.899,369.263
0.249,3.358,4,253.54,-444.275,332.581
2.956,4,4,246.033,-384.277,274.414
4,3.844,1.994,261.536,-280.212,164.978
3.437,3.089,2.192,26.978,-112.61,-7.935
2.192,1.477,2.607,-241.089,136.23,-182.8
0.488,-0.499,2.524,-295.532,354.187,-331.238
-0.993,-1.732,2.397,-248.84,482.666,-455.444
-1.831,-2.028,1.655,-111.755,510.193,-500.244
-2.16,-1.496,0.782,11.597,430.054,-375.244
-2.099,-0.682,0.383,5.798,286.804,-127.075
-1.759,-0.12,0.387,-88.135,132.507,114.319
-1.221,0.035,0.585,-181.213,6.958,261.353
-0.676,-0.027,0.875,-233.704,-69.824,286.255
-0.272,-0.157,1.09,-236.694,-91.187,218.079
-0.053,-0.225,1.144,-207.886,-55.725,112.427
0.001,-0.212,1.07,-165.405,10.437,10.376
-0.063,-0.127,0.954,-131.836,79.285,-68.97
-0.225,-0.021,0.798,-117.859,134.094,-115.112
-0.383,0.036,0.619,-117.615,164.917,-129.578
-0.481,0.054,0.48,-124.634,168.152,-124.878
-0.489,0.083,0.355,-132.629,148.193,-106.018
-0.433,0.116,0.247,-137.756,117.126,-76.599
-0.346,0.169,0.205,-140.991,86.243,-43.396
-0.251,0.232,0.205,-141.296,62.073,-14.221
-0.155,0.314,0.221,-137.024,44.983,4.333
-0.042,0.432,0.272,-127.808,36.072,10.681
0.046,0.556,0.294,-116.211,38.33,7.935
0.111,0.686,0.305,-109.192,51.208,-0.916
0.13,0.763,0.234,-104.736,68.604,-15.991
0.135,0.791,0.141,-99.792,83.435,-38.513
0.136,0.774,0.041,-95.947,91.37,-61.951
0.12,0.728,-0.065,-91.431,92.346,-78.796
0.119,0.656,-0.135,-82.825,85.632,-85.632
0.125,0.609,-0.168,-71.594,72.693,-82.397
0.13,0.586,-0.189,-57.678,59.326,-70.313
0.104,0.588,-0.153,-39.368,50.842,-53.284
0.07,0.641,-0.087,-19.958,49.438,-35.828
-0.025,0.879,-0.111,-4.822,52.368,-16.174
-0.049,0.958,-0.13,20.508,53.833,-7.324
-0.125,1.074,-0.169,31.311,53.772,-11.536
-0.189,1.2,-0.21,25.33,55.054,-11.841
-0.234,1.26,-0.238,23.804,54.016,-18.188
-0.229,1.251,-0.229,27.649,44.983,-28.32
-0.2,1.256,-0.237,34.302,30.09,-32.41
-0.157,1.28,-0.232,37.903,15.869,-27.161
-0.101,1.324,-0.18,35.156,6.714,-15.259
-0.062,1.369,-0.149,27.527,1.282,-1.282
-0.026,1.39,-0.11,18.799,-2.747,8.85
0.038,1.406,-0.05,12.268,-7.141,11.169
0.081,1.421,0.016,7.141,-9.705,7.324
0.121,1.412,0.079,4.883,-9.155,-0.061
0.147,1.385,0.101,4.883,-5.737,-7.08
0.159,1.352,0.116,5.066,-1.892,-13.367
0.157,1.301,0.127,6.104,1.221,-18.005
0.159,1.255,0.132,7.812,2.686,-19.348
0.159,1.232,0.138,9.827,3.113,-15.625
0.157,1.211,0.141,12.878,2.136,-8.972
0.157,1.21,0.134,13.306,0.61,0.488
0.158,1.203,0.125,11.78,-1.465,9.766
0.161,1.181,0.134,8.789,-4.089,16.113
0.164,1.154,0.147,4.761,-7.874,20.63
0.183,1.125,0.161,3.174,-11.23,23.987
0.198,1.097,0.172,2.502,-12.024,24.231
0.186,1.081,0.174,-0.244,-10.315,24.231
0.187,1.082,0.193,-2.747,-8.423,24.109
0.185,1.075,0.209,-3.662,-6.592,23.01
0.172,1.043,0.2,-3.784,-5.249,21.057
0.174,1.015,0.192,-4.456,-4.272,17.883
0.167,0.995,0.198,-5.371,-4.089,13.733
0.165,0.985,0.206,-5.92,-4.7,10.376
0.167,0.983,0.214,-6.409,-5.92,9.216
0.174,0.974,0.212,-6.165,-6.653,9.583
0.186,0.961,0.198,-6.348,-6.287,9.033
0.191,0.948,0.198,-6.775,-6.165,6.409
0.194,0.94,0.199,-6.958,-6.042,1.892
0.192,0.933,0.193,-6.775,-5.615,-2.502
0.194,0.917,0.198,-6.165,-5.615,-6.348
0.192,0.895,0.198,-5.31,-5.981,-9.094
0.191,0.875,0.195,-4.395,-6.104,-10.559
0.178,0.87,0.199,-3.113,-6.287,-11.23
0.173,0.883,0.2,-2.075,-6.958,-10.559
0.183,0.9,0.213,-2.014,-9.033,-7.69
0.193,0.915,0.23,-3.357,-10.132,-4.15
0.2,0.918,0.242,-4.211,-10.376,-2.197
0.209,0.927,0.253,-5.127,-9.827,-2.869
0.212,0.941,0.26,-5.92,-8.789,-5.371
0.21,0.96,0.263,-7.324,-7.263,-8.667
0.212,0.966,0.274,-8.24,-6.287,-10.742
0.205,0.944,0.276,-8.423,-5.432,-12.024
0.204,0.912,0.269,-8.057,-4.211,-13.184
0.207,0.899,0.279,-7.446,-3.357,-13.733
0.204,0.906,0.285,-6.348,-2.747,-13.123
0.201,0.921,0.282,-5.188,-2.258,-11.475
0.201,0.928,0.281,-4.7,-1.709,-9.216
0.202,0.93,0.275,-4.578,-0.854,-7.019
0.202,0.924,0.269,-4.272,0.183,-6.104
0.202,0.932,0.275,-4.028,1.526,-6.531
0.196,0.948,0.274,-2.93,3.479,-7.69
-1.157,-1.507,1.546,113.464,-64.27,15.198
-1.447,-1.658,2.272,133.118,-77.942,23.682
-1.714,-1.629,2.933,158.997,-97.412,49.316
-1.907,-1.334,3.497,193.665,-132.019,90.637
-2.021,-0.767,3.887,232.971,-178.284,151.855
-1.66,0.17,4,265.991,-228.577,227.417
-0.979,1.242,4,290.71,-278.076,295.227
-0.097,2.219,4,280.823,-304.749,323.73
0.78,3.149,4,244.69,-298.096,308.228
1.794,3.818,3.503,206.238,-253.296,255.31
2.351,3.476,1.929,150.024,-180.176,155.212
2.047,2.593,1.739,10.254,-80.2,23.804
1.367,1.496,1.963,-150.94,65.552,-105.957
0.553,0.291,1.954,-221.008,205.322,-214.478
-0.253,-0.489,1.719,-200.623,290.161,-287.17
-0.796,-0.729,1.355,-135.986,315.186,-310.791
-1.182,-0.599,1.063,-82.581,284.485,-256.531
-1.251,-0.226,0.853,-70.618,219.727,-125.61
-1.069,0.05,0.819,-93.689,133.362,18.127
-0.818,0.175,0.932,-133.789,53.345,117.859
-0.509,0.175,1.09,-174.194,9.949,155.273
-0.301,0.138,1.202,-190.918,-2.686,133.972
-0.193,0.101,1.202,-181.519,9.46,71.35
-0.185,0.085,1.132,-162.17,38.94,-5.737
-0.237,0.097,1.031,-143.433,71.655,-70.923
-0.277,0.139,0.914,-131.592,95.642,-109.07
-0.317,0.18,0.771,-126.16,106.995,-116.882
-0.367,0.211,0.625,-126.648,106.934,-102.173
-0.38,0.206,0.498,-128.052,97.778,-79.407
-0.341,0.214,0.422,-127.625,80.383,-60.669
-0.276,0.254,0.365,-122.192,60.181,-47.607
-0.179,0.354,0.339,-110.84,45.166,-37.842
-0.107,0.462,0.296,-101.196,38.208,-28.809
-0.098,0.55,0.252,-95.459,37.903,-22.217
-0.055,0.633,0.213,-91.797,38.452,-23.682
-0.01,0.719,0.152,-87.28,38.513,-30.457
0.005,0.784,0.08,-83.923,41.992,-37.659
-0.01,0.834,0.04,-84.717,48.645,-44.8
-0.003,0.859,-0.015,-88.196,54.016,-51.392
-0.001,0.884,-0.043,-88.989,54.443,-56.396
0.025,0.917,-0.058,-89.844,50.11,-57.556
0.017,0.93,-0.092,-91.37,45.654,-54.688
0.036,0.926,-0.144,-90.698,39.551,-52.124
0.052,0.895,-0.196,-85.083,32.532,-52.246
0.072,0.878,-0.218,-77.209,28.198,-54.504
0.087,0.868,-0.273,-68.481,25.818,-56.763
0.128,0.876,-0.32,-57.495,24.048,-57.8
0.096,0.828,-0.363,-47.546,25.757,-58.899
0.112,0.812,-0.364,-33.142,20.691,-63.416
0.122,0.737,-0.365,-13.977,13.367,-62.012
0.131,0.765,-0.398,-3.235,13.123,-47.363
0.166,0.819,-0.391,1.343,18.25,-30.579
0.124,0.875,-0.428,7.751,19.897,-15.686
0.117,0.907,-0.465,17.334,15.015,-7.812
0.128,0.917,-0.456,25.513,4.883,-6.042
0.161,0.938,-0.418,30.273,-5.005,-5.615
0.199,0.953,-0.374,33.02,-9.155,-4.089
0.206,0.943,-0.327,35.034,-8.545,-1.77
0.216,0.95,-0.303,39.917,-6.897,1.953
0.214,0.946,-0.264,47.241,-5.615,5.249
0.206,0.965,-0.236,52.673,-3.54,10.681
0.208,0.99,-0.203,59.692,-2.319,15.503
0.183,1.018,-0.162,62.744,-2.075,23.315
0.16,1.06,-0.115,63.416,-1.892,31.372
0.142,1.109,-0.066,61.707,-1.038,38.635
0.13,1.153,-0.023,59.143,-1.404,44.434
0.115,1.2,0.016,54.81,-2.136,48.401
0.127,1.233,0.078,49.622,-4.272,48.889
0.145,1.26,0.132,45.837,-7.08,46.997
0.16,1.278,0.171,42.48,-8.24,44.678
0.182,1.281,0.198,39.978,-8.24,41.809
0.201,1.273,0.217,36.804,-7.568,38.147
0.216,1.264,0.249,31.86,-6.531,33.936
0.232,1.25,0.271,27.527,-4.822,29.724
0.236,1.232,0.275,23.682,-2.563,25.513
0.236,1.207,0.269,19.409,0.122,20.264
0.229,1.174,0.258,15.686,3.052,14.221
0.218,1.138,0.249,12.268,5.493,7.812
0.201,1.107,0.249,9.827,7.141,1.953
0.184,1.074,0.235,8.972,8.057,-1.77
0.17,1.045,0.22,8.728,8.118,-3.662
0.156,1.022,0.22,7.935,7.507,-5.066
0.14,1.019,0.222,7.141,6.531,-5.737
0.141,1.024,0.215,7.263,3.967,-4.944
0.149,1.03,0.216,5.371,0.732,-2.686
0.161,1.024,0.229,1.648,-1.648,-0.793
0.171,1.021,0.261,-1.282,-2.258,-0.122
0.186,1.036,0.292,-0.916,-2.319,-1.343
0.189,1.057,0.287,0.671,-1.343,-3.235
0.194,1.07,0.282,-0.488,0.549,-5.554
0.194,1.069,0.285,-4.028,1.343,-7.874
0.192,1.05,0.293,-7.446,1.709,-10.071
0.188,1.033,0.294,-9.399,2.075,-11.169
0.197,1.026,0.294,-10.193,1.892,-10.437
0.206,1.03,0.295,-12.207,1.587,-7.935
0.212,1.032,0.293,-15.015,2.197,-5.31
0.217,1.027,0.307,-16.785,3.174,-4.456
0.218,1.019,0.301,-15.32,4.639,-5.371
0.216,1.024,0.292,-13.855,7.141,-7.019
0.205,1.033,0.287,-14.16,10.071,-8.179
0.19,1.039,0.28,-15.625,12.085,-8.789
0.177,1.038,0.268,-17.029,12.756,-8.423
0.168,1.031,0.249,-18.616,13,-7.69
0.161,1.029,0.25,-20.081,12.695,-6.653
0.151,1.03,0.248,-20.691,12.024,-5.554
0.14,1.032,0.226,-19.592,11.414,-5.066
0.132,1.052,0.219,-19.592,10.925,-5.066
0.109,1.084,0.216,-21.423,10.498,-4.15
0.092,1.106,0.197,-24.902,9.705,-2.747
0.08,1.113,0.18,-29.541,8.362,-2.319
0.068,1.115,0.169,-34.912,6.531,-2.625
0.077,1.11,0.151,-38.33,3.784,-3.296
0.088,1.103,0.143,-40.771,0.916,-3.906
0.103,1.083,0.147,-40.527,-1.465,-5.432
0.124,1.068,0.132,-36.011,-3.113,-7.996
0.138,1.051,0.092,-28.442,-4.089,-11.475
0.157,1.034,0.056,-21.667,-3.235,-15.015
0.174,1.029,0.033,-16.846,-2.93,-18.127
0.182,1.012,0,-9.949,-3.357,-20.813
-1.35,-2.44,1.578,222.534,-120.056,-91.248
-1.72,-2.805,2.415,236.45,-137.939,-75.684
-2.04,-2.895,3.272,258.362,-176.636,-45.715
-2.3,-2.637,4,277.649,-233.032,11.963
-2.425,-1.927,4,299.561,-293.457,101.685
-1.888,-0.818,4,323.975,-354.492,215.393
-1.066,0.503,4,310.852,-424.255,340.088
-0.262,2.282,4,238.892,-468.811,459.656
1.129,4,4,195.679,-410.645,550.598
2.877,4,2.052,205.139,-257.935,499.939
2.183,3.987,1.08,42.603,-107.178,245.789
1.354,3.004,1.794,-155.945,14.099,-17.334
0.872,1.555,1.825,-250.671,128.479,-220.215
0.003,-0.008,2.288,-261.536,239.807,-398.071
-0.883,-1.278,2.461,-241.028,342.529,-522.217
-1.513,-1.918,1.856,-151.917,398.926,-528.564
-1.516,-1.719,1.037,-52.917,376.038,-386.658
-1.549,-1.004,0.746,-42.297,280.762,-153.87
-1.233,-0.448,0.794,-95.642,158.752,65.796
-0.967,-0.138,0.846,-159.607,48.95,211.975
-0.616,-0.003,0.977,-210.144,-25.818,281.494
-0.246,0.008,1.096,-229.797,-57.495,276.55
-0.03,-0.001,1.141,-221.863,-48.218,207.397
0.089,-0.007,1.147,-193.97,-6.775,105.835
0.101,0.027,1.112,-158.264,49.255,10.071
0.021,0.068,0.988,-125.366,104.736,-58.777
-0.108,0.101,0.839,-103.516,145.996,-95.886
-0.237,0.118,0.682,-91.003,164.856,-103.149
-0.332,0.114,0.508,-79.834,158.569,-90.271
-0.355,0.119,0.393,-69.824,132.019,-65.613
-0.325,0.15,0.354,-65.308,95.093,-34.18
-0.237,0.217,0.366,-61.279,56.396,0.732
-0.117,0.321,0.392,-53.589,25.146,34.729
0.012,0.432,0.418,-46.997,7.019,61.707
0.117,0.585,0.45,-38.513,4.211,77.759
0.153,0.74,0.45,-32.104,16.235,81.726
0.114,0.858,0.414,-26.917,36.255,70.129
0.055,0.933,0.379,-19.409,53.162,42.48
0.037,0.994,0.308,-9.521,61.707,9.399
0,1.037,0.203,-0.122,64.575,-16.663
-0.045,1.072,0.123,2.808,65.002,-32.043
-0.058,1.023,0.075,3.54,62.073,-34.729
-0.185,1.119,-0.048,0.488,59.021,-26.917
-0.151,0.992,-0.035,13.489,44.556,-33.875
-0.214,1.058,0.026,9.155,31.372,-31.738
-0.22,1.138,-0.042,-0.732,36.194,-15.503
-0.207,1.176,-0.092,-3.723,37.354,-2.869
-0.216,1.185,-0.144,-2.93,30.701,3.479
-0.154,1.221,-0.156,-3.784,22.095,3.723
-0.076,1.231,-0.166,-5.493,15.93,0.732
-0.038,1.218,-0.178,-10.986,13.245,-2.93
0.008,1.188,-0.178,-18.188,11.047,-6.165
0.042,1.145,-0.128,-22.949,6.348,-10.254
0.096,1.112,-0.059,-23.376,-0.061,-12.817
0.136,1.05,0.007,-18.25,-5.493,-13.062
0.137,1.043,0.066,-16.846,-6.042,-3.845
0.138,1.074,0.135,-13.428,-3.418,7.446
0.12,1.12,0.178,-10.315,-0.916,18.005
0.091,1.181,0.2,-7.202,0.549,23.682
0.098,1.202,0.241,-3.601,-0.488,23.315
0.094,1.238,0.272,-5.92,-2.686,20.142
0.106,1.239,0.307,-13.184,-4.456,22.095
0.143,1.239,0.342,-21.301,-7.385,25.94
0.175,1.227,0.365,-30.212,-10.376,32.959
0.194,1.203,0.4,-38.696,-11.658,38.879
0.218,1.166,0.435,-42.847,-10.803,40.466
0.248,1.114,0.462,-39.856,-9.216,36.255
0.268,1.062,0.449,-30.823,-6.226,28.809
0.284,1.026,0.411,-20.081,-1.831,19.592
0.263,1.007,0.379,-12.39,3.723,9.766
0.226,1,0.354,-8.667,9.033,0.61
0.198,0.995,0.326,-7.08,11.963,-6.226
0.181,0.993,0.309,-7.385,11.536,-10.315
0.177,0.999,0.308,-10.803,10.193,-10.62
0.168,1.001,0.295,-16.663,9.644,-8.545
0.163,0.989,0.283,-23.437,8.911,-7.08
0.155,0.963,0.302,-28.564,7.446,-7.507
0.157,0.918,0.31,-27.771,5.127,-10.01
0.163,0.87,0.3,-21.362,2.991,-13.367
0.164,0.841,0.292,-13.489,1.831,-16.174
0.166,0.838,0.293,-6.287,0.732,-16.418
0.176,0.865,0.297,-0.61,-0.977,-13.55
0.193,0.916,0.302,2.258,-2.258,-8.789
0.205,0.958,0.31,0.244,-2.319,-4.333
0.208,0.979,0.323,-5.249,-1.77,-2.869
0.218,0.986,0.339,-10.254,-0.488,-5.188
0.226,0.988,0.347,-14.343,1.343,-9.949
0.227,0.984,0.343,-18.555,4.456,-14.16
0.216,0.975,0.34,-23.56,8.179,-17.639
0.21,0.958,0.349,-27.161,10.742,-20.63
0.207,0.936,0.354,-28.687,12.268,-22.217
0.201,0.91,0.342,-28.381,13.611,-22.095
0.204,0.901,0.331,-27.832,14.16,-20.935
0.22,0.922,0.333,-27.893,14.954,-18.188
0.21,0.947,0.326,-30.762,17.212,-14.16
0.209,0.978,0.321,-35.95,19.653,-10.071
0.231,1.03,0.329,-41.565,21.362,-7.629
0.225,1.073,0.317,-50.171,24.536,-6.958
0.213,1.103,0.305,-62.5,29.236,-8.423
0.207,1.126,0.292,-75.745,32.471,-12.39
0.195,1.139,0.282,-88.623,33.264,-17.944
0.197,1.149,0.294,-100.586,32.898,-23.315
0.184,1.144,0.322,-109.375,32.227,-26.733
0.172,1.094,0.326,-108.154,29.419,-29.48
0.19,1.059,0.294,-96.375,24.841,-32.41
0.232,1.073,0.277,-83.496,23.56,-33.386
0.241,1.111,0.245,-74.463,25.879,-31.006
0.255,1.164,0.21,-71.167,28.748,-27.222
0.255,1.185,0.168,-71.472,30.151,-24.536
0.266,1.188,0.137,-72.876,29.053,-24.109
0.293,1.18,0.117,-71.899,25.818,-25.33
0.308,1.171,0.103,-70.251,23.804,-26.978
0.317,1.15,0.1,-67.078,23.743,-27.405
0.322,1.124,0.068,-58.777,24.17,-26.55
0.331,1.116,0.019,-50.537,24.719,-24.475
0.314,1.096,-0.014,-45.227,25.33,-20.386
0.285,1.057,-0.036,-38.086,24.353,-16.052
0.27,1.005,-0.102,-23.743,20.081,-13.611
0.267,0.962,-0.162,-9.155,14.16,-12.146
-1.546,-2.254,1.58,158.081,-18.86,-67.932
-2.115,-2.507,2.313,196.106,-41.26,-62.012
-2.541,-2.338,3.03,231.079,-95.52,-20.752
-2.792,-1.768,3.803,249.451,-173.767,51.27
-2.585,-0.786,4,252.136,-255.554,139.709
-1.632,0.324,4,252.563,-328.979,222.778
-0.359,1.301,4,234.131,-383.911,268.799
0.964,2.41,4,185.12,-391.296,274.719
2.844,3.559,4,147.095,-344.91,267.151
3.178,3.373,2.25,96.375,-235.107,219.36
2.447,2.621,2.349,-93.018,-52.551,73.303
1.373,1.307,2.409,-260.559,159.79,-132.385
0.008,-0.221,2.299,-271.057,324.89,-338.44
-1.17,-1.26,2.02,-206.665,429.199,-480.835
-1.778,-1.523,1.428,-101.685,444.031,-489.319
-2.024,-1.109,0.821,-36.865,364.624,-329.651
-1.906,-0.49,0.581,-73.364,234.924,-84.29
-1.54,-0.096,0.656,-152.161,94.727,124.146
-0.995,0.027,0.869,-217.041,-12.329,229.797
-0.499,0.018,1.084,-247.742,-61.768,227.417
-0.215,-0.01,1.208,-239.014,-55.298,152.283
-0.043,0.012,1.237,-207.275,-6.226,51.697
-0.024,0.074,1.14,-173.462,59.692,-37.842
-0.213,0.094,0.981,-155.212,120.544,-101.99
-0.375,0.058,0.816,-152.405,157.41,-141.296
-0.478,-0.007,0.655,-150.635,162.659,-155.212
-0.489,-0.041,0.486,-145.569,143.066,-141.663
-0.409,-0.001,0.335,-142.273,111.145,-106.506
-0.286,0.085,0.251,-142.029,75.989,-60.669
-0.132,0.231,0.269,-145.752,46.204,-16.418
0.021,0.391,0.315,-150.513,28.015,16.541
0.112,0.536,0.325,-152.588,22.461,33.936
